workerid,proliferate.condition,form,lbr_after,lbr_before,region,response_correct,rt,trial_id,trial_no,type,word_idx,error
5943,Experiment Group,The,0,0,0,1,957,1017,0,filler,0,
5943,Experiment Group,steady,0,0,critical,1,1129,1017,0,filler,1,
5943,Experiment Group,the,0,0,spillover_1,1,1314,1017,0,filler,2,
5943,Experiment Group,sails,0,0,spillover_2,1,900,1017,0,filler,3,
5943,Experiment Group,captain,0,0,0,1,664,1017,0,filler,4,
5943,Experiment Group,ship,0,0,0,1,832,1017,0,filler,5,
5943,Experiment Group,The,0,0,0,1,583,1012,1,filler,0,
5943,Experiment Group,basket,0,0,critical,1,746,1012,1,filler,1,
5943,Experiment Group,held,0,0,spillover_1,1,506,1012,1,filler,2,
5943,Experiment Group,the,0,0,spillover_2,1,456,1012,1,filler,3,
5943,Experiment Group,expensive,0,0,0,1,423,1012,1,filler,4,
5943,Experiment Group,cheeses,0,0,0,1,856,1012,1,filler,5,
5943,Experiment Group,Built,0,0,0,1,1038,71,2,critical,0,
5943,Experiment Group,from,0,0,0,1,506,71,2,critical,1,
5943,Experiment Group,the,0,0,0,1,451,71,2,critical,2,
5943,Experiment Group,ruins,0,0,0,1,451,71,2,critical,3,
5943,Experiment Group,of,0,0,0,1,441,71,2,critical,4,
5943,Experiment Group,the,0,0,0,1,467,71,2,critical,5,
5943,Experiment Group,town,0,0,0,1,502,71,2,critical,6,
5943,Experiment Group,hall,0,0,0,1,499,71,2,critical,7,
5943,Experiment Group,that,0,0,0,1,486,71,2,critical,8,
5943,Experiment Group,was,0,0,0,1,440,71,2,critical,9,
5943,Experiment Group,"demolished,",0,0,0,1,452,71,2,critical,10,
5943,Experiment Group,the,0,0,0,1,397,71,2,critical,11,
5943,Experiment Group,salesman,0,0,critical,1,350,71,2,critical,12,
5943,Experiment Group,will,0,0,spillover_1,1,376,71,2,critical,13,
5943,Experiment Group,market,0,0,spillover_2,1,457,71,2,critical,14,
5943,Experiment Group,the,0,0,0,1,460,71,2,critical,15,
5943,Experiment Group,new,0,0,0,1,489,71,2,critical,16,
5943,Experiment Group,skyscraper,0,0,0,1,842,71,2,critical,17,
5943,Experiment Group,The,0,0,0,1,495,1010,3,filler,0,
5943,Experiment Group,editor,0,0,critical,1,556,1010,3,filler,1,
5943,Experiment Group,mentored,0,0,spillover_1,1,433,1010,3,filler,2,
5943,Experiment Group,the,0,0,spillover_2,1,540,1010,3,filler,3,
5943,Experiment Group,stressed,0,0,0,1,341,1010,3,filler,4,
5943,Experiment Group,writer,0,0,0,1,674,1010,3,filler,5,
5943,Experiment Group,Housing,0,0,0,0,831,94,4,critical,0,
5943,Experiment Group,only,0,0,0,0,558,94,4,critical,1,
5943,Experiment Group,new,0,0,0,0,387,94,4,critical,2,
5943,Experiment Group,students,0,0,0,0,600,94,4,critical,3,
5943,Experiment Group,that,0,0,0,0,452,94,4,critical,4,
5943,Experiment Group,he,0,0,0,0,411,94,4,critical,5,
5943,Experiment Group,"interviewed,",0,0,0,0,407,94,4,critical,6,
5943,Experiment Group,the,0,0,0,0,637,94,4,critical,7,
5943,Experiment Group,dormitory,0,0,critical,0,544,94,4,critical,8,
5943,Experiment Group,will,0,0,spillover_1,0,367,94,4,critical,9,
5943,Experiment Group,be,0,0,spillover_2,0,267,94,4,critical,10,
5943,Experiment Group,visited,0,0,0,0,381,94,4,critical,11,
5943,Experiment Group,by,0,0,0,0,307,94,4,critical,12,
5943,Experiment Group,the,0,0,0,0,394,94,4,critical,13,
5943,Experiment Group,headmaster,0,0,0,0,1165,94,4,critical,14,
5943,Experiment Group,Featuring,0,0,0,1,651,122,5,critical,0,
5943,Experiment Group,the,0,0,0,1,491,122,5,critical,1,
5943,Experiment Group,brick,0,0,0,1,549,122,5,critical,2,
5943,Experiment Group,oven,0,0,0,1,618,122,5,critical,3,
5943,Experiment Group,that,0,0,0,1,704,122,5,critical,4,
5943,Experiment Group,he,0,0,0,1,498,122,5,critical,5,
5943,Experiment Group,installed,0,0,0,1,482,122,5,critical,6,
5943,Experiment Group,last,0,0,0,1,459,122,5,critical,7,
5943,Experiment Group,"week,",0,0,0,1,434,122,5,critical,8,
5943,Experiment Group,the,0,0,0,1,424,122,5,critical,9,
5943,Experiment Group,chef,0,0,critical,1,383,122,5,critical,10,
5943,Experiment Group,will,0,0,spillover_1,1,414,122,5,critical,11,
5943,Experiment Group,monitor,0,0,spillover_2,1,387,122,5,critical,12,
5943,Experiment Group,the,0,0,0,1,454,122,5,critical,13,
5943,Experiment Group,kitchen,0,0,0,1,2012,122,5,critical,14,
5943,Experiment Group,The,0,0,0,1,507,1005,6,filler,0,
5943,Experiment Group,wrecking,0,0,critical,1,513,1005,6,filler,1,
5943,Experiment Group,ball,0,0,spillover_1,1,565,1005,6,filler,2,
5943,Experiment Group,demolished,0,0,spillover_2,1,445,1005,6,filler,3,
5943,Experiment Group,the,0,0,0,1,448,1005,6,filler,4,
5943,Experiment Group,decrepit,0,0,0,1,404,1005,6,filler,5,
5943,Experiment Group,building,0,0,0,1,786,1005,6,filler,6,
5943,Experiment Group,The,0,0,0,1,527,1024,7,filler,0,
5943,Experiment Group,blank,0,0,critical,1,495,1024,7,filler,1,
5943,Experiment Group,the,0,0,spillover_1,1,510,1024,7,filler,2,
5943,Experiment Group,painter,0,0,spillover_2,1,483,1024,7,filler,3,
5943,Experiment Group,canvas,0,0,0,1,457,1024,7,filler,4,
5943,Experiment Group,admires,0,0,0,1,820,1024,7,filler,5,
5943,Experiment Group,Running,0,0,0,1,531,54,8,critical,0,
5943,Experiment Group,on,0,0,0,1,564,54,8,critical,1,
5943,Experiment Group,energy,0,0,0,1,563,54,8,critical,2,
5943,Experiment Group,that,0,0,0,1,487,54,8,critical,3,
5943,Experiment Group,he,0,0,0,1,453,54,8,critical,4,
5943,Experiment Group,harvested,0,0,0,1,483,54,8,critical,5,
5943,Experiment Group,from,0,0,0,1,531,54,8,critical,6,
5943,Experiment Group,solar,0,0,0,1,451,54,8,critical,7,
5943,Experiment Group,"panels,",0,0,0,1,515,54,8,critical,8,
5943,Experiment Group,the,0,0,0,1,435,54,8,critical,9,
5943,Experiment Group,car,0,0,critical,1,351,54,8,critical,10,
5943,Experiment Group,will,0,0,spillover_1,1,426,54,8,critical,11,
5943,Experiment Group,be,0,0,spillover_2,1,499,54,8,critical,12,
5943,Experiment Group,loved,0,0,0,1,482,54,8,critical,13,
5943,Experiment Group,deeply,0,0,0,1,690,54,8,critical,14,
5943,Experiment Group,by,0,0,0,1,370,54,8,critical,15,
5943,Experiment Group,the,0,0,0,1,489,54,8,critical,16,
5943,Experiment Group,environmentalist,0,0,0,1,635,54,8,critical,17,
5943,Experiment Group,Formed,0,0,0,0,624,63,9,critical,0,
5943,Experiment Group,from,0,0,0,0,395,63,9,critical,1,
5943,Experiment Group,red,0,0,0,0,444,63,9,critical,2,
5943,Experiment Group,clay,0,0,0,0,495,63,9,critical,3,
5943,Experiment Group,that,0,0,0,0,405,63,9,critical,4,
5943,Experiment Group,was,0,0,0,0,415,63,9,critical,5,
5943,Experiment Group,bought,0,0,0,0,426,63,9,critical,6,
5943,Experiment Group,in,0,0,0,0,431,63,9,critical,7,
5943,Experiment Group,New,0,0,0,0,468,63,9,critical,8,
5943,Experiment Group,"Mexico,",0,0,0,0,414,63,9,critical,9,
5943,Experiment Group,the,0,0,0,0,387,63,9,critical,10,
5943,Experiment Group,flowerpot,0,0,critical,0,373,63,9,critical,11,
5943,Experiment Group,will,0,0,spillover_1,0,436,63,9,critical,12,
5943,Experiment Group,be,0,0,spillover_2,0,370,63,9,critical,13,
5943,Experiment Group,admired,0,0,0,0,514,63,9,critical,14,
5943,Experiment Group,by,0,0,0,0,504,63,9,critical,15,
5943,Experiment Group,the,0,0,0,0,401,63,9,critical,16,
5943,Experiment Group,artist,0,0,0,0,618,63,9,critical,17,
5943,Experiment Group,Containing,0,0,0,1,557,22,10,critical,0,
5943,Experiment Group,all,0,0,0,1,408,22,10,critical,1,
5943,Experiment Group,the,0,0,0,1,482,22,10,critical,2,
5943,Experiment Group,marbles,0,0,0,1,454,22,10,critical,3,
5943,Experiment Group,that,0,0,0,1,506,22,10,critical,4,
5943,Experiment Group,she,0,0,0,1,379,22,10,critical,5,
5943,Experiment Group,"bought,",0,0,0,1,402,22,10,critical,6,
5943,Experiment Group,the,0,0,0,1,406,22,10,critical,7,
5943,Experiment Group,girl,0,0,critical,1,461,22,10,critical,8,
5943,Experiment Group,will,0,0,spillover_1,1,363,22,10,critical,9,
5943,Experiment Group,shake,0,0,spillover_2,1,363,22,10,critical,10,
5943,Experiment Group,the,0,0,0,1,397,22,10,critical,11,
5943,Experiment Group,jar,0,0,0,1,368,22,10,critical,12,
5943,Experiment Group,violently,0,0,0,1,641,22,10,critical,13,
5943,Experiment Group,The,0,0,0,1,435,1023,11,filler,0,
5943,Experiment Group,acclaimed,0,0,critical,1,388,1023,11,filler,1,
5943,Experiment Group,honors,0,0,spillover_1,1,418,1023,11,filler,2,
5943,Experiment Group,artists,0,0,spillover_2,1,461,1023,11,filler,3,
5943,Experiment Group,gala,0,0,0,1,414,1023,11,filler,4,
5943,Experiment Group,the,0,0,0,1,565,1023,11,filler,5,
5943,Experiment Group,The,0,0,0,1,465,1011,12,filler,0,
5943,Experiment Group,hammer,0,0,critical,1,404,1011,12,filler,1,
5943,Experiment Group,smashed,0,0,spillover_1,1,513,1011,12,filler,2,
5943,Experiment Group,the,0,0,spillover_2,1,769,1011,12,filler,3,
5943,Experiment Group,fragile,0,0,0,1,484,1011,12,filler,4,
5943,Experiment Group,glass,0,0,0,1,613,1011,12,filler,5,
5943,Experiment Group,The,0,0,0,1,484,1020,13,filler,0,
5943,Experiment Group,valuable,0,0,critical,1,369,1020,13,filler,1,
5943,Experiment Group,the,0,0,spillover_1,1,395,1020,13,filler,2,
5943,Experiment Group,shelf,0,0,spillover_2,1,383,1020,13,filler,3,
5943,Experiment Group,jewelry,0,0,0,1,389,1020,13,filler,4,
5943,Experiment Group,stores,0,0,0,1,514,1020,13,filler,5,
5943,Experiment Group,Totaling,0,0,0,1,614,82,14,critical,0,
5943,Experiment Group,eight,0,0,0,1,413,82,14,critical,1,
5943,Experiment Group,athletes,0,0,0,1,406,82,14,critical,2,
5943,Experiment Group,that,0,0,0,1,434,82,14,critical,3,
5943,Experiment Group,he,0,0,0,1,427,82,14,critical,4,
5943,Experiment Group,"recruited,",0,0,0,1,384,82,14,critical,5,
5943,Experiment Group,the,0,0,0,1,462,82,14,critical,6,
5943,Experiment Group,coach,0,0,critical,1,360,82,14,critical,7,
5943,Experiment Group,will,0,0,spillover_1,1,370,82,14,critical,8,
5943,Experiment Group,manage,0,0,spillover_2,1,374,82,14,critical,9,
5943,Experiment Group,the,0,0,0,1,364,82,14,critical,10,
5943,Experiment Group,team,0,0,0,1,686,82,14,critical,11,
5943,Experiment Group,The,0,0,0,1,419,1003,15,filler,0,
5943,Experiment Group,woman,0,0,critical,1,359,1003,15,filler,1,
5943,Experiment Group,washed,0,0,spillover_1,1,357,1003,15,filler,2,
5943,Experiment Group,the,0,0,spillover_2,1,404,1003,15,filler,3,
5943,Experiment Group,dirty,0,0,0,1,395,1003,15,filler,4,
5943,Experiment Group,dishes,0,0,0,1,580,1003,15,filler,5,
5943,Experiment Group,The,0,0,0,1,449,1001,16,filler,0,
5943,Experiment Group,gopher,0,0,critical,1,338,1001,16,filler,1,
5943,Experiment Group,chased,0,0,spillover_1,1,433,1001,16,filler,2,
5943,Experiment Group,the,0,0,spillover_2,1,386,1001,16,filler,3,
5943,Experiment Group,fearful,0,0,0,1,397,1001,16,filler,4,
5943,Experiment Group,rabbit,0,0,0,1,540,1001,16,filler,5,
5943,Experiment Group,Spanning,0,0,0,1,594,114,17,critical,0,
5943,Experiment Group,the,0,0,0,1,465,114,17,critical,1,
5943,Experiment Group,peaceful,0,0,0,1,404,114,17,critical,2,
5943,Experiment Group,countryside,0,0,0,1,579,114,17,critical,3,
5943,Experiment Group,that,0,0,0,1,486,114,17,critical,4,
5943,Experiment Group,she,0,0,0,1,401,114,17,critical,5,
5943,Experiment Group,"conquerored,",0,0,0,1,388,114,17,critical,6,
5943,Experiment Group,the,0,0,0,1,460,114,17,critical,7,
5943,Experiment Group,territories,0,0,0,1,377,114,17,critical,8,
5943,Experiment Group,will,0,0,0,1,489,114,17,critical,9,
5943,Experiment Group,be,0,0,0,1,525,114,17,critical,10,
5943,Experiment Group,ruled,0,0,0,1,432,114,17,critical,11,
5943,Experiment Group,by,0,0,0,1,405,114,17,critical,12,
5943,Experiment Group,the,0,0,0,1,331,114,17,critical,13,
5943,Experiment Group,queen,0,0,critical,1,555,114,17,critical,14,
5943,Experiment Group,The,0,0,0,1,401,1008,18,filler,0,
5943,Experiment Group,child,0,0,critical,1,343,1008,18,filler,1,
5943,Experiment Group,played,0,0,spillover_1,1,377,1008,18,filler,2,
5943,Experiment Group,the,0,0,spillover_2,1,405,1008,18,filler,3,
5943,Experiment Group,loud,0,0,0,1,347,1008,18,filler,4,
5943,Experiment Group,drums,0,0,0,1,431,1008,18,filler,5,
5943,Experiment Group,Comprising,0,0,0,1,595,103,19,critical,0,
5943,Experiment Group,six,0,0,0,1,497,103,19,critical,1,
5943,Experiment Group,difficult,0,0,0,1,406,103,19,critical,2,
5943,Experiment Group,classes,0,0,0,1,398,103,19,critical,3,
5943,Experiment Group,that,0,0,0,1,394,103,19,critical,4,
5943,Experiment Group,were,0,0,0,1,391,103,19,critical,5,
5943,Experiment Group,designed,0,0,0,1,452,103,19,critical,6,
5943,Experiment Group,"carefully,",0,0,0,1,712,103,19,critical,7,
5943,Experiment Group,the,0,0,0,1,439,103,19,critical,8,
5943,Experiment Group,schedule,0,0,critical,1,371,103,19,critical,9,
5943,Experiment Group,will,0,0,spillover_1,1,377,103,19,critical,10,
5943,Experiment Group,be,0,0,spillover_2,1,414,103,19,critical,11,
5943,Experiment Group,managed,0,0,0,1,334,103,19,critical,12,
5943,Experiment Group,by,0,0,0,1,415,103,19,critical,13,
5943,Experiment Group,the,0,0,0,1,367,103,19,critical,14,
5943,Experiment Group,teacher,0,0,0,1,505,103,19,critical,15,
5943,Experiment Group,The,0,0,0,1,433,1002,20,filler,0,
5943,Experiment Group,professor,0,0,critical,1,436,1002,20,filler,1,
5943,Experiment Group,played,0,0,spillover_1,1,382,1002,20,filler,2,
5943,Experiment Group,the,0,0,spillover_2,1,513,1002,20,filler,3,
5943,Experiment Group,lovely,0,0,0,1,417,1002,20,filler,4,
5943,Experiment Group,violin,0,0,0,1,468,1002,20,filler,5,
5943,Experiment Group,Composed,0,0,0,0,503,33,21,critical,0,
5943,Experiment Group,of,0,0,0,0,371,33,21,critical,1,
5943,Experiment Group,meringue,0,0,0,0,359,33,21,critical,2,
5943,Experiment Group,that,0,0,0,0,400,33,21,critical,3,
5943,Experiment Group,was,0,0,0,0,444,33,21,critical,4,
5943,Experiment Group,"prepared,",0,0,0,0,458,33,21,critical,5,
5943,Experiment Group,the,0,0,0,0,412,33,21,critical,6,
5943,Experiment Group,dessert,0,0,critical,0,394,33,21,critical,7,
5943,Experiment Group,will,0,0,spillover_1,0,453,33,21,critical,8,
5943,Experiment Group,be,0,0,spillover_2,0,392,33,21,critical,9,
5943,Experiment Group,presented,0,0,0,0,411,33,21,critical,10,
5943,Experiment Group,by,0,0,0,0,377,33,21,critical,11,
5943,Experiment Group,the,0,0,0,0,361,33,21,critical,12,
5943,Experiment Group,baker,0,0,0,0,374,33,21,critical,13,
5943,Experiment Group,The,0,0,0,0,451,1015,22,filler,0,
5943,Experiment Group,wet,0,0,critical,0,342,1015,22,filler,1,
5943,Experiment Group,heats,0,0,spillover_1,0,383,1015,22,filler,2,
5943,Experiment Group,dryer,0,0,spillover_2,0,512,1015,22,filler,3,
5943,Experiment Group,the,0,0,0,0,434,1015,22,filler,4,
5943,Experiment Group,clothes,0,0,0,0,448,1015,22,filler,5,
5943,Experiment Group,The,0,0,0,1,384,1016,23,filler,0,
5943,Experiment Group,sore,0,0,critical,1,287,1016,23,filler,1,
5943,Experiment Group,the,0,0,spillover_1,1,437,1016,23,filler,2,
5943,Experiment Group,athlete,0,0,spillover_2,1,392,1016,23,filler,3,
5943,Experiment Group,massages,0,0,0,1,360,1016,23,filler,4,
5943,Experiment Group,muscles,0,0,0,1,628,1016,23,filler,5,
5943,Experiment Group,Consisting,0,0,0,1,1120,14,24,critical,0,
5943,Experiment Group,of,0,0,0,1,428,14,24,critical,1,
5943,Experiment Group,ten,0,0,0,1,393,14,24,critical,2,
5943,Experiment Group,passages,0,0,0,1,383,14,24,critical,3,
5943,Experiment Group,that,0,0,0,1,366,14,24,critical,4,
5943,Experiment Group,she,0,0,0,1,421,14,24,critical,5,
5943,Experiment Group,"wrote,",0,0,0,1,374,14,24,critical,6,
5943,Experiment Group,a,0,0,0,1,405,14,24,critical,7,
5943,Experiment Group,book,0,0,critical,1,323,14,24,critical,8,
5943,Experiment Group,will,0,0,spillover_1,1,299,14,24,critical,9,
5943,Experiment Group,be,0,0,spillover_2,1,306,14,24,critical,10,
5943,Experiment Group,published,0,0,0,1,311,14,24,critical,11,
5943,Experiment Group,by,0,0,0,1,319,14,24,critical,12,
5943,Experiment Group,the,0,0,0,1,318,14,24,critical,13,
5943,Experiment Group,author,0,0,0,1,320,14,24,critical,14,
5943,Experiment Group,The,0,0,0,1,351,1021,25,filler,0,
5943,Experiment Group,broken,0,0,critical,1,312,1021,25,filler,1,
5943,Experiment Group,fixes,0,0,spillover_1,1,387,1021,25,filler,2,
5943,Experiment Group,truck,0,0,spillover_2,1,397,1021,25,filler,3,
5943,Experiment Group,engineer,0,0,0,1,486,1021,25,filler,4,
5943,Experiment Group,the,0,0,0,1,578,1021,25,filler,5,
5943,Experiment Group,The,0,0,0,1,535,1006,26,filler,0,
5943,Experiment Group,horse,0,0,critical,1,362,1006,26,filler,1,
5943,Experiment Group,chewed,0,0,spillover_1,1,359,1006,26,filler,2,
5943,Experiment Group,the,0,0,spillover_2,1,429,1006,26,filler,3,
5943,Experiment Group,sweet,0,0,0,1,435,1006,26,filler,4,
5943,Experiment Group,apple,0,0,0,1,522,1006,26,filler,5,
5943,Experiment Group,The,0,0,0,1,374,1013,27,filler,0,
5943,Experiment Group,messy,0,0,critical,1,363,1013,27,filler,1,
5943,Experiment Group,cleans,0,0,spillover_1,1,350,1013,27,filler,2,
5943,Experiment Group,student,0,0,spillover_2,1,382,1013,27,filler,3,
5943,Experiment Group,room,0,0,0,1,446,1013,27,filler,4,
5943,Experiment Group,the,0,0,0,1,465,1013,27,filler,5,
5943,Experiment Group,The,0,0,0,1,477,1019,28,filler,0,
5943,Experiment Group,difficult,0,0,critical,1,381,1019,28,filler,1,
5943,Experiment Group,grades,0,0,spillover_1,1,421,1019,28,filler,2,
5943,Experiment Group,exam,0,0,spillover_2,1,401,1019,28,filler,3,
5943,Experiment Group,assistant,0,0,0,1,411,1019,28,filler,4,
5943,Experiment Group,the,0,0,0,1,453,1019,28,filler,5,
5943,Experiment Group,teaching,0,0,0,1,577,1019,28,filler,6,
5943,Experiment Group,The,0,0,0,1,417,1018,29,filler,0,
5943,Experiment Group,dangerous,0,0,critical,1,361,1018,29,filler,1,
5943,Experiment Group,mixes,0,0,spillover_1,1,399,1018,29,filler,2,
5943,Experiment Group,chemicals,0,0,spillover_2,1,380,1018,29,filler,3,
5943,Experiment Group,scientist,0,0,0,1,500,1018,29,filler,4,
5943,Experiment Group,the,0,0,0,1,693,1018,29,filler,5,
5943,Experiment Group,The,0,0,0,1,466,1009,30,filler,0,
5943,Experiment Group,knight,0,0,critical,1,320,1009,30,filler,1,
5943,Experiment Group,protected,0,0,spillover_1,1,347,1009,30,filler,2,
5943,Experiment Group,the,0,0,spillover_2,1,380,1009,30,filler,3,
5943,Experiment Group,guarded,0,0,0,1,357,1009,30,filler,4,
5943,Experiment Group,fortress,0,0,0,1,522,1009,30,filler,5,
5943,Experiment Group,The,0,0,0,1,439,1004,31,filler,0,
5943,Experiment Group,monkey,0,0,critical,1,336,1004,31,filler,1,
5943,Experiment Group,ate,0,0,spillover_1,1,362,1004,31,filler,2,
5943,Experiment Group,the,0,0,spillover_2,1,380,1004,31,filler,3,
5943,Experiment Group,ripe,0,0,0,1,330,1004,31,filler,4,
5943,Experiment Group,banana,0,0,0,1,577,1004,31,filler,5,
5943,Experiment Group,The,0,0,0,1,374,1007,32,filler,0,
5943,Experiment Group,librarian,0,0,critical,1,325,1007,32,filler,1,
5943,Experiment Group,shelved,0,0,spillover_1,1,404,1007,32,filler,2,
5943,Experiment Group,the,0,0,spillover_2,1,406,1007,32,filler,3,
5943,Experiment Group,heavy,0,0,0,1,374,1007,32,filler,4,
5943,Experiment Group,book,0,0,0,1,521,1007,32,filler,5,
5943,Experiment Group,The,0,0,0,1,449,1014,33,filler,0,
5943,Experiment Group,secret,0,0,critical,1,429,1014,33,filler,1,
5943,Experiment Group,protects,0,0,spillover_1,1,422,1014,33,filler,2,
5943,Experiment Group,lock,0,0,spillover_2,1,455,1014,33,filler,3,
5943,Experiment Group,the,0,0,0,1,454,1014,33,filler,4,
5943,Experiment Group,safe,0,0,0,1,893,1014,33,filler,5,
5943,Experiment Group,Derived,0,0,0,1,480,43,34,critical,0,
5943,Experiment Group,from,0,0,0,1,549,43,34,critical,1,
5943,Experiment Group,ancient,0,0,0,1,419,43,34,critical,2,
5943,Experiment Group,Greek,0,0,0,1,422,43,34,critical,3,
5943,Experiment Group,texts,0,0,0,1,341,43,34,critical,4,
5943,Experiment Group,that,0,0,0,1,335,43,34,critical,5,
5943,Experiment Group,was,0,0,0,1,369,43,34,critical,6,
5943,Experiment Group,"unearthed,",0,0,0,1,365,43,34,critical,7,
5943,Experiment Group,the,0,0,0,1,440,43,34,critical,8,
5943,Experiment Group,tome,0,0,critical,1,292,43,34,critical,9,
5943,Experiment Group,will,0,0,spillover_1,1,342,43,34,critical,10,
5943,Experiment Group,be,0,0,spillover_2,1,324,43,34,critical,11,
5943,Experiment Group,studied,0,0,0,1,313,43,34,critical,12,
5943,Experiment Group,carefully,0,0,0,1,475,43,34,critical,13,
5943,Experiment Group,by,0,0,0,1,343,43,34,critical,14,
5943,Experiment Group,the,0,0,0,1,404,43,34,critical,15,
5943,Experiment Group,student,0,0,0,1,571,43,34,critical,16,
5943,Experiment Group,The,0,0,0,1,399,1022,35,filler,0,
5943,Experiment Group,dying,0,0,critical,1,365,1022,35,filler,1,
5943,Experiment Group,the,0,0,spillover_1,1,341,1022,35,filler,2,
5943,Experiment Group,cable,0,0,spillover_2,1,374,1022,35,filler,3,
5943,Experiment Group,computer,0,0,0,1,489,1022,35,filler,4,
5943,Experiment Group,charges,0,0,0,1,603,1022,35,filler,5,
5947,Experiment Group,The,0,0,0,1,1252,1019,0,filler,0,
5947,Experiment Group,difficult,0,0,critical,1,1242,1019,0,filler,1,
5947,Experiment Group,grades,0,0,spillover_1,1,1565,1019,0,filler,2,
5947,Experiment Group,exam,0,0,spillover_2,1,1276,1019,0,filler,3,
5947,Experiment Group,assistant,0,0,0,1,1081,1019,0,filler,4,
5947,Experiment Group,the,0,0,0,1,1044,1019,0,filler,5,
5947,Experiment Group,teaching,0,0,0,1,1073,1019,0,filler,6,
5947,Experiment Group,Consisting,0,0,0,1,1465,14,1,critical,0,
5947,Experiment Group,of,0,0,0,1,1039,14,1,critical,1,
5947,Experiment Group,ten,0,0,0,1,1050,14,1,critical,2,
5947,Experiment Group,passages,0,0,0,1,1050,14,1,critical,3,
5947,Experiment Group,that,0,0,0,1,958,14,1,critical,4,
5947,Experiment Group,she,0,0,0,1,716,14,1,critical,5,
5947,Experiment Group,"wrote,",0,0,0,1,783,14,1,critical,6,
5947,Experiment Group,a,0,0,0,1,1236,14,1,critical,7,
5947,Experiment Group,book,0,0,critical,1,708,14,1,critical,8,
5947,Experiment Group,will,0,0,spillover_1,1,809,14,1,critical,9,
5947,Experiment Group,be,0,0,spillover_2,1,664,14,1,critical,10,
5947,Experiment Group,published,0,0,0,1,714,14,1,critical,11,
5947,Experiment Group,by,0,0,0,1,776,14,1,critical,12,
5947,Experiment Group,the,0,0,0,1,716,14,1,critical,13,
5947,Experiment Group,author,0,0,0,1,4482,14,1,critical,14,
5947,Experiment Group,Housing,0,0,0,0,1187,93,2,critical,0,
5947,Experiment Group,only,0,0,0,0,795,93,2,critical,1,
5947,Experiment Group,new,0,0,0,0,839,93,2,critical,2,
5947,Experiment Group,students,0,0,0,0,714,93,2,critical,3,
5947,Experiment Group,that,0,0,0,0,772,93,2,critical,4,
5947,Experiment Group,were,0,0,0,0,754,93,2,critical,5,
5947,Experiment Group,"interviewed,",0,0,0,0,995,93,2,critical,6,
5947,Experiment Group,the,0,0,0,0,1268,93,2,critical,7,
5947,Experiment Group,dormitory,0,0,critical,0,1457,93,2,critical,8,
5947,Experiment Group,will,0,0,spillover_1,0,872,93,2,critical,9,
5947,Experiment Group,be,0,0,spillover_2,0,695,93,2,critical,10,
5947,Experiment Group,visited,0,0,0,0,691,93,2,critical,11,
5947,Experiment Group,by,0,0,0,0,897,93,2,critical,12,
5947,Experiment Group,the,0,0,0,0,657,93,2,critical,13,
5947,Experiment Group,headmaster,0,0,0,0,5873,93,2,critical,14,
5947,Experiment Group,The,0,0,0,1,1355,1008,3,filler,0,
5947,Experiment Group,child,0,0,critical,1,1010,1008,3,filler,1,
5947,Experiment Group,played,0,0,spillover_1,1,842,1008,3,filler,2,
5947,Experiment Group,the,0,0,spillover_2,1,592,1008,3,filler,3,
5947,Experiment Group,loud,0,0,0,1,754,1008,3,filler,4,
5947,Experiment Group,drums,0,0,0,1,3210,1008,3,filler,5,
5947,Experiment Group,The,0,0,0,1,891,1001,4,filler,0,
5947,Experiment Group,gopher,0,0,critical,1,1521,1001,4,filler,1,
5947,Experiment Group,chased,0,0,spillover_1,1,1026,1001,4,filler,2,
5947,Experiment Group,the,0,0,spillover_2,1,625,1001,4,filler,3,
5947,Experiment Group,fearful,0,0,0,1,737,1001,4,filler,4,
5947,Experiment Group,rabbit,0,0,0,1,5734,1001,4,filler,5,
5947,Experiment Group,The,0,0,0,1,1181,1021,5,filler,0,
5947,Experiment Group,broken,0,0,critical,1,1067,1021,5,filler,1,
5947,Experiment Group,fixes,0,0,spillover_1,1,1235,1021,5,filler,2,
5947,Experiment Group,truck,0,0,spillover_2,1,1716,1021,5,filler,3,
5947,Experiment Group,engineer,0,0,0,1,1140,1021,5,filler,4,
5947,Experiment Group,the,0,0,0,1,5127,1021,5,filler,5,
5947,Experiment Group,The,0,0,0,1,964,1012,6,filler,0,
5947,Experiment Group,basket,0,0,critical,1,1018,1012,6,filler,1,
5947,Experiment Group,held,0,0,spillover_1,1,943,1012,6,filler,2,
5947,Experiment Group,the,0,0,spillover_2,1,678,1012,6,filler,3,
5947,Experiment Group,expensive,0,0,0,1,767,1012,6,filler,4,
5947,Experiment Group,cheeses,0,0,0,1,6186,1012,6,filler,5,
5947,Experiment Group,The,0,0,0,1,945,1020,7,filler,0,
5947,Experiment Group,valuable,0,0,critical,1,907,1020,7,filler,1,
5947,Experiment Group,the,0,0,spillover_1,1,679,1020,7,filler,2,
5947,Experiment Group,shelf,0,0,spillover_2,1,930,1020,7,filler,3,
5947,Experiment Group,jewelry,0,0,0,1,934,1020,7,filler,4,
5947,Experiment Group,stores,0,0,0,1,3021,1020,7,filler,5,
5947,Experiment Group,Comprising,0,0,0,1,1073,104,8,critical,0,
5947,Experiment Group,six,0,0,0,1,933,104,8,critical,1,
5947,Experiment Group,difficult,0,0,0,1,1352,104,8,critical,2,
5947,Experiment Group,classes,0,0,0,1,1128,104,8,critical,3,
5947,Experiment Group,that,0,0,0,1,1111,104,8,critical,4,
5947,Experiment Group,she,0,0,0,1,771,104,8,critical,5,
5947,Experiment Group,designed,0,0,0,1,2192,104,8,critical,6,
5947,Experiment Group,"carefully,",0,0,0,1,1280,104,8,critical,7,
5947,Experiment Group,the,0,0,0,1,1221,104,8,critical,8,
5947,Experiment Group,schedule,0,0,critical,1,913,104,8,critical,9,
5947,Experiment Group,will,0,0,spillover_1,1,1000,104,8,critical,10,
5947,Experiment Group,be,0,0,spillover_2,1,774,104,8,critical,11,
5947,Experiment Group,managed,0,0,0,1,720,104,8,critical,12,
5947,Experiment Group,by,0,0,0,1,847,104,8,critical,13,
5947,Experiment Group,the,0,0,0,1,637,104,8,critical,14,
5947,Experiment Group,teacher,0,0,0,1,5741,104,8,critical,15,
5947,Experiment Group,The,0,0,0,1,1160,1023,9,filler,0,
5947,Experiment Group,acclaimed,0,0,critical,1,1255,1023,9,filler,1,
5947,Experiment Group,honors,0,0,spillover_1,1,1541,1023,9,filler,2,
5947,Experiment Group,artists,0,0,spillover_2,1,1569,1023,9,filler,3,
5947,Experiment Group,gala,0,0,0,1,1319,1023,9,filler,4,
5947,Experiment Group,the,0,0,0,1,3172,1023,9,filler,5,
5947,Experiment Group,Totaling,0,0,0,1,1049,84,10,critical,0,
5947,Experiment Group,eight,0,0,0,1,873,84,10,critical,1,
5947,Experiment Group,athletes,0,0,0,1,789,84,10,critical,2,
5947,Experiment Group,that,0,0,0,1,827,84,10,critical,3,
5947,Experiment Group,he,0,0,0,1,671,84,10,critical,4,
5947,Experiment Group,"recruited,",0,0,0,1,1484,84,10,critical,5,
5947,Experiment Group,the,0,0,0,1,1153,84,10,critical,6,
5947,Experiment Group,team,0,0,critical,1,1009,84,10,critical,7,
5947,Experiment Group,will,0,0,spillover_1,1,812,84,10,critical,8,
5947,Experiment Group,be,0,0,spillover_2,1,577,84,10,critical,9,
5947,Experiment Group,managed,0,0,0,1,749,84,10,critical,10,
5947,Experiment Group,by,0,0,0,1,672,84,10,critical,11,
5947,Experiment Group,the,0,0,0,1,657,84,10,critical,12,
5947,Experiment Group,coach,0,0,0,1,36117,84,10,critical,13,
5947,Experiment Group,Containing,0,0,0,1,1065,24,11,critical,0,
5947,Experiment Group,all,0,0,0,1,650,24,11,critical,1,
5947,Experiment Group,the,0,0,0,1,614,24,11,critical,2,
5947,Experiment Group,marbles,0,0,0,1,705,24,11,critical,3,
5947,Experiment Group,that,0,0,0,1,697,24,11,critical,4,
5947,Experiment Group,she,0,0,0,1,669,24,11,critical,5,
5947,Experiment Group,"bought,",0,0,0,1,896,24,11,critical,6,
5947,Experiment Group,the,0,0,0,1,1864,24,11,critical,7,
5947,Experiment Group,jar,0,0,critical,1,1378,24,11,critical,8,
5947,Experiment Group,will,0,0,spillover_1,1,1108,24,11,critical,9,
5947,Experiment Group,be,0,0,spillover_2,1,709,24,11,critical,10,
5947,Experiment Group,violently,0,0,0,1,1228,24,11,critical,11,
5947,Experiment Group,shaken,0,0,0,1,762,24,11,critical,12,
5947,Experiment Group,by,0,0,0,1,885,24,11,critical,13,
5947,Experiment Group,the,0,0,0,1,679,24,11,critical,14,
5947,Experiment Group,girl,0,0,0,1,4537,24,11,critical,15,
5947,Experiment Group,The,0,0,0,1,832,1005,12,filler,0,
5947,Experiment Group,wrecking,0,0,critical,1,1125,1005,12,filler,1,
5947,Experiment Group,ball,0,0,spillover_1,1,1014,1005,12,filler,2,
5947,Experiment Group,demolished,0,0,spillover_2,1,1307,1005,12,filler,3,
5947,Experiment Group,the,0,0,0,1,758,1005,12,filler,4,
5947,Experiment Group,decrepit,0,0,0,1,2584,1005,12,filler,5,
5947,Experiment Group,building,0,0,0,1,6531,1005,12,filler,6,
5947,Experiment Group,Spanning,0,0,0,1,970,112,13,critical,0,
5947,Experiment Group,the,0,0,0,1,610,112,13,critical,1,
5947,Experiment Group,peaceful,0,0,0,1,883,112,13,critical,2,
5947,Experiment Group,countryside,0,0,0,1,950,112,13,critical,3,
5947,Experiment Group,that,0,0,0,1,702,112,13,critical,4,
5947,Experiment Group,she,0,0,0,1,647,112,13,critical,5,
5947,Experiment Group,"conquerored,",0,0,0,1,2218,112,13,critical,6,
5947,Experiment Group,the,0,0,0,1,1220,112,13,critical,7,
5947,Experiment Group,queen,0,0,critical,1,1016,112,13,critical,8,
5947,Experiment Group,will,0,0,spillover_1,1,664,112,13,critical,9,
5947,Experiment Group,rule,0,0,spillover_2,1,806,112,13,critical,10,
5947,Experiment Group,the,0,0,0,1,612,112,13,critical,11,
5947,Experiment Group,territories,0,0,0,1,7611,112,13,critical,12,
5947,Experiment Group,The,0,0,0,1,948,1013,14,filler,0,
5947,Experiment Group,messy,0,0,critical,1,796,1013,14,filler,1,
5947,Experiment Group,cleans,0,0,spillover_1,1,753,1013,14,filler,2,
5947,Experiment Group,student,0,0,spillover_2,1,980,1013,14,filler,3,
5947,Experiment Group,room,0,0,0,1,1046,1013,14,filler,4,
5947,Experiment Group,the,0,0,0,1,4586,1013,14,filler,5,
5947,Experiment Group,Derived,0,0,0,1,1204,43,15,critical,0,
5947,Experiment Group,from,0,0,0,1,758,43,15,critical,1,
5947,Experiment Group,ancient,0,0,0,1,984,43,15,critical,2,
5947,Experiment Group,Greek,0,0,0,1,845,43,15,critical,3,
5947,Experiment Group,texts,0,0,0,1,788,43,15,critical,4,
5947,Experiment Group,that,0,0,0,1,1005,43,15,critical,5,
5947,Experiment Group,was,0,0,0,1,9225,43,15,critical,6,
5947,Experiment Group,"unearthed,",0,0,0,1,1963,43,15,critical,7,
5947,Experiment Group,the,0,0,0,1,1113,43,15,critical,8,
5947,Experiment Group,tome,0,0,critical,1,1110,43,15,critical,9,
5947,Experiment Group,will,0,0,spillover_1,1,1261,43,15,critical,10,
5947,Experiment Group,be,0,0,spillover_2,1,588,43,15,critical,11,
5947,Experiment Group,studied,0,0,0,1,841,43,15,critical,12,
5947,Experiment Group,carefully,0,0,0,1,834,43,15,critical,13,
5947,Experiment Group,by,0,0,0,1,1492,43,15,critical,14,
5947,Experiment Group,the,0,0,0,1,634,43,15,critical,15,
5947,Experiment Group,student,0,0,0,1,3307,43,15,critical,16,
5947,Experiment Group,The,0,0,0,1,837,1006,16,filler,0,
5947,Experiment Group,horse,0,0,critical,1,844,1006,16,filler,1,
5947,Experiment Group,chewed,0,0,spillover_1,1,778,1006,16,filler,2,
5947,Experiment Group,the,0,0,spillover_2,1,811,1006,16,filler,3,
5947,Experiment Group,sweet,0,0,0,1,848,1006,16,filler,4,
5947,Experiment Group,apple,0,0,0,1,5341,1006,16,filler,5,
5947,Experiment Group,The,0,0,0,0,1121,1015,17,filler,0,
5947,Experiment Group,wet,0,0,critical,0,910,1015,17,filler,1,
5947,Experiment Group,heats,0,0,spillover_1,0,1535,1015,17,filler,2,
5947,Experiment Group,dryer,0,0,spillover_2,0,972,1015,17,filler,3,
5947,Experiment Group,the,0,0,0,0,678,1015,17,filler,4,
5947,Experiment Group,clothes,0,0,0,0,8606,1015,17,filler,5,
5947,Experiment Group,The,0,0,0,1,914,1009,18,filler,0,
5947,Experiment Group,knight,0,0,critical,1,1240,1009,18,filler,1,
5947,Experiment Group,protected,0,0,spillover_1,1,884,1009,18,filler,2,
5947,Experiment Group,the,0,0,spillover_2,1,711,1009,18,filler,3,
5947,Experiment Group,guarded,0,0,0,1,922,1009,18,filler,4,
5947,Experiment Group,fortress,0,0,0,1,2497,1009,18,filler,5,
5947,Experiment Group,The,0,0,0,1,986,1024,19,filler,0,
5947,Experiment Group,blank,0,0,critical,1,1118,1024,19,filler,1,
5947,Experiment Group,the,0,0,spillover_1,1,816,1024,19,filler,2,
5947,Experiment Group,painter,0,0,spillover_2,1,730,1024,19,filler,3,
5947,Experiment Group,canvas,0,0,0,1,863,1024,19,filler,4,
5947,Experiment Group,admires,0,0,0,1,6327,1024,19,filler,5,
5947,Experiment Group,Running,0,0,0,1,958,53,20,critical,0,
5947,Experiment Group,on,0,0,0,1,740,53,20,critical,1,
5947,Experiment Group,energy,0,0,0,1,715,53,20,critical,2,
5947,Experiment Group,that,0,0,0,1,662,53,20,critical,3,
5947,Experiment Group,was,0,0,0,1,636,53,20,critical,4,
5947,Experiment Group,harvested,0,0,0,1,833,53,20,critical,5,
5947,Experiment Group,from,0,0,0,1,853,53,20,critical,6,
5947,Experiment Group,solar,0,0,0,1,858,53,20,critical,7,
5947,Experiment Group,"panels,",0,0,0,1,730,53,20,critical,8,
5947,Experiment Group,the,0,0,0,1,1258,53,20,critical,9,
5947,Experiment Group,car,0,0,critical,1,721,53,20,critical,10,
5947,Experiment Group,will,0,0,spillover_1,1,687,53,20,critical,11,
5947,Experiment Group,be,0,0,spillover_2,1,585,53,20,critical,12,
5947,Experiment Group,loved,0,0,0,1,852,53,20,critical,13,
5947,Experiment Group,deeply,0,0,0,1,1411,53,20,critical,14,
5947,Experiment Group,by,0,0,0,1,791,53,20,critical,15,
5947,Experiment Group,the,0,0,0,1,908,53,20,critical,16,
5947,Experiment Group,environmentalist,0,0,0,1,4576,53,20,critical,17,
5947,Experiment Group,Featuring,0,0,0,1,886,121,21,critical,0,
5947,Experiment Group,the,0,0,0,1,682,121,21,critical,1,
5947,Experiment Group,brick,0,0,0,1,802,121,21,critical,2,
5947,Experiment Group,oven,0,0,0,1,738,121,21,critical,3,
5947,Experiment Group,that,0,0,0,1,672,121,21,critical,4,
5947,Experiment Group,was,0,0,0,1,658,121,21,critical,5,
5947,Experiment Group,installed,0,0,0,1,747,121,21,critical,6,
5947,Experiment Group,last,0,0,0,1,998,121,21,critical,7,
5947,Experiment Group,"week,",0,0,0,1,593,121,21,critical,8,
5947,Experiment Group,the,0,0,0,1,886,121,21,critical,9,
5947,Experiment Group,chef,0,0,critical,1,861,121,21,critical,10,
5947,Experiment Group,will,0,0,spillover_1,1,825,121,21,critical,11,
5947,Experiment Group,monitor,0,0,spillover_2,1,821,121,21,critical,12,
5947,Experiment Group,the,0,0,0,1,698,121,21,critical,13,
5947,Experiment Group,kitchen,0,0,0,1,3479,121,21,critical,14,
5947,Experiment Group,The,0,0,0,1,638,1014,22,filler,0,
5947,Experiment Group,secret,0,0,critical,1,940,1014,22,filler,1,
5947,Experiment Group,protects,0,0,spillover_1,1,886,1014,22,filler,2,
5947,Experiment Group,lock,0,0,spillover_2,1,988,1014,22,filler,3,
5947,Experiment Group,the,0,0,0,1,915,1014,22,filler,4,
5947,Experiment Group,safe,0,0,0,1,4794,1014,22,filler,5,
5947,Experiment Group,The,0,0,0,1,993,1007,23,filler,0,
5947,Experiment Group,librarian,0,0,critical,1,1566,1007,23,filler,1,
5947,Experiment Group,shelved,0,0,spillover_1,1,937,1007,23,filler,2,
5947,Experiment Group,the,0,0,spillover_2,1,737,1007,23,filler,3,
5947,Experiment Group,heavy,0,0,0,1,787,1007,23,filler,4,
5947,Experiment Group,book,0,0,0,1,2915,1007,23,filler,5,
5947,Experiment Group,The,0,0,0,1,669,1010,24,filler,0,
5947,Experiment Group,editor,0,0,critical,1,729,1010,24,filler,1,
5947,Experiment Group,mentored,0,0,spillover_1,1,690,1010,24,filler,2,
5947,Experiment Group,the,0,0,spillover_2,1,771,1010,24,filler,3,
5947,Experiment Group,stressed,0,0,0,1,828,1010,24,filler,4,
5947,Experiment Group,writer,0,0,0,1,3148,1010,24,filler,5,
5947,Experiment Group,The,0,0,0,1,699,1016,25,filler,0,
5947,Experiment Group,sore,0,0,critical,1,790,1016,25,filler,1,
5947,Experiment Group,the,0,0,spillover_1,1,732,1016,25,filler,2,
5947,Experiment Group,athlete,0,0,spillover_2,1,819,1016,25,filler,3,
5947,Experiment Group,massages,0,0,0,1,1340,1016,25,filler,4,
5947,Experiment Group,muscles,0,0,0,1,2494,1016,25,filler,5,
5947,Experiment Group,The,0,0,0,1,1226,1017,26,filler,0,
5947,Experiment Group,steady,0,0,critical,1,942,1017,26,filler,1,
5947,Experiment Group,the,0,0,spillover_1,1,1449,1017,26,filler,2,
5947,Experiment Group,sails,0,0,spillover_2,1,1059,1017,26,filler,3,
5947,Experiment Group,captain,0,0,0,1,1097,1017,26,filler,4,
5947,Experiment Group,ship,0,0,0,1,4030,1017,26,filler,5,
5947,Experiment Group,Formed,0,0,0,1,1188,62,27,critical,0,
5947,Experiment Group,from,0,0,0,1,760,62,27,critical,1,
5947,Experiment Group,red,0,0,0,1,911,62,27,critical,2,
5947,Experiment Group,clay,0,0,0,1,724,62,27,critical,3,
5947,Experiment Group,that,0,0,0,1,930,62,27,critical,4,
5947,Experiment Group,he,0,0,0,1,696,62,27,critical,5,
5947,Experiment Group,bought,0,0,0,1,819,62,27,critical,6,
5947,Experiment Group,in,0,0,0,1,729,62,27,critical,7,
5947,Experiment Group,New,0,0,0,1,866,62,27,critical,8,
5947,Experiment Group,"Mexico,",0,0,0,1,941,62,27,critical,9,
5947,Experiment Group,the,0,0,0,1,1237,62,27,critical,10,
5947,Experiment Group,artist,0,0,critical,1,920,62,27,critical,11,
5947,Experiment Group,will,0,0,spillover_1,1,666,62,27,critical,12,
5947,Experiment Group,admire,0,0,spillover_2,1,783,62,27,critical,13,
5947,Experiment Group,the,0,0,0,1,629,62,27,critical,14,
5947,Experiment Group,flowerpot,0,0,0,1,6790,62,27,critical,15,
5947,Experiment Group,The,0,0,0,1,725,1002,28,filler,0,
5947,Experiment Group,professor,0,0,critical,1,712,1002,28,filler,1,
5947,Experiment Group,played,0,0,spillover_1,1,698,1002,28,filler,2,
5947,Experiment Group,the,0,0,spillover_2,1,620,1002,28,filler,3,
5947,Experiment Group,lovely,0,0,0,1,764,1002,28,filler,4,
5947,Experiment Group,violin,0,0,0,1,3361,1002,28,filler,5,
5947,Experiment Group,The,0,0,0,1,781,1004,29,filler,0,
5947,Experiment Group,monkey,0,0,critical,1,684,1004,29,filler,1,
5947,Experiment Group,ate,0,0,spillover_1,1,661,1004,29,filler,2,
5947,Experiment Group,the,0,0,spillover_2,1,596,1004,29,filler,3,
5947,Experiment Group,ripe,0,0,0,1,808,1004,29,filler,4,
5947,Experiment Group,banana,0,0,0,1,3799,1004,29,filler,5,
5947,Experiment Group,The,0,0,0,1,981,1018,30,filler,0,
5947,Experiment Group,dangerous,0,0,critical,1,1123,1018,30,filler,1,
5947,Experiment Group,mixes,0,0,spillover_1,1,751,1018,30,filler,2,
5947,Experiment Group,chemicals,0,0,spillover_2,1,898,1018,30,filler,3,
5947,Experiment Group,scientist,0,0,0,1,890,1018,30,filler,4,
5947,Experiment Group,the,0,0,0,1,3049,1018,30,filler,5,
5947,Experiment Group,The,0,0,0,1,840,1011,31,filler,0,
5947,Experiment Group,hammer,0,0,critical,1,804,1011,31,filler,1,
5947,Experiment Group,smashed,0,0,spillover_1,1,890,1011,31,filler,2,
5947,Experiment Group,the,0,0,spillover_2,1,571,1011,31,filler,3,
5947,Experiment Group,fragile,0,0,0,1,825,1011,31,filler,4,
5947,Experiment Group,glass,0,0,0,1,3020,1011,31,filler,5,
5947,Experiment Group,The,0,0,0,1,798,1003,32,filler,0,
5947,Experiment Group,woman,0,0,critical,1,737,1003,32,filler,1,
5947,Experiment Group,washed,0,0,spillover_1,1,709,1003,32,filler,2,
5947,Experiment Group,the,0,0,spillover_2,1,658,1003,32,filler,3,
5947,Experiment Group,dirty,0,0,0,1,796,1003,32,filler,4,
5947,Experiment Group,dishes,0,0,0,1,2983,1003,32,filler,5,
5947,Experiment Group,The,0,0,0,1,955,1022,33,filler,0,
5947,Experiment Group,dying,0,0,critical,1,1342,1022,33,filler,1,
5947,Experiment Group,the,0,0,spillover_1,1,776,1022,33,filler,2,
5947,Experiment Group,cable,0,0,spillover_2,1,740,1022,33,filler,3,
5947,Experiment Group,computer,0,0,0,1,837,1022,33,filler,4,
5947,Experiment Group,charges,0,0,0,1,3168,1022,33,filler,5,
5947,Experiment Group,Built,0,0,0,1,1089,72,34,critical,0,
5947,Experiment Group,from,0,0,0,1,753,72,34,critical,1,
5947,Experiment Group,the,0,0,0,1,668,72,34,critical,2,
5947,Experiment Group,ruins,0,0,0,1,848,72,34,critical,3,
5947,Experiment Group,of,0,0,0,1,845,72,34,critical,4,
5947,Experiment Group,the,0,0,0,1,777,72,34,critical,5,
5947,Experiment Group,town,0,0,0,1,863,72,34,critical,6,
5947,Experiment Group,hall,0,0,0,1,1083,72,34,critical,7,
5947,Experiment Group,that,0,0,0,1,780,72,34,critical,8,
5947,Experiment Group,he,0,0,0,1,618,72,34,critical,9,
5947,Experiment Group,"demolished,",0,0,0,1,885,72,34,critical,10,
5947,Experiment Group,the,0,0,0,1,1102,72,34,critical,11,
5947,Experiment Group,salesman,0,0,critical,1,1017,72,34,critical,12,
5947,Experiment Group,will,0,0,spillover_1,1,862,72,34,critical,13,
5947,Experiment Group,market,0,0,spillover_2,1,1288,72,34,critical,14,
5947,Experiment Group,the,0,0,0,1,826,72,34,critical,15,
5947,Experiment Group,new,0,0,0,1,742,72,34,critical,16,
5947,Experiment Group,skyscraper,0,0,0,1,4642,72,34,critical,17,
5947,Experiment Group,Composed,0,0,0,0,1181,33,35,critical,0,
5947,Experiment Group,of,0,0,0,0,650,33,35,critical,1,
5947,Experiment Group,meringue,0,0,0,0,2450,33,35,critical,2,
5947,Experiment Group,that,0,0,0,0,1120,33,35,critical,3,
5947,Experiment Group,was,0,0,0,0,736,33,35,critical,4,
5947,Experiment Group,"prepared,",0,0,0,0,991,33,35,critical,5,
5947,Experiment Group,the,0,0,0,0,1027,33,35,critical,6,
5947,Experiment Group,dessert,0,0,critical,0,1592,33,35,critical,7,
5947,Experiment Group,will,0,0,spillover_1,0,748,33,35,critical,8,
5947,Experiment Group,be,0,0,spillover_2,0,704,33,35,critical,9,
5947,Experiment Group,presented,0,0,0,0,771,33,35,critical,10,
5947,Experiment Group,by,0,0,0,0,808,33,35,critical,11,
5947,Experiment Group,the,0,0,0,0,591,33,35,critical,12,
5947,Experiment Group,baker,0,0,0,0,2997,33,35,critical,13,
5936,Experiment Group,The,0,0,0,1,1089,1003,0,filler,0,
5936,Experiment Group,woman,0,0,critical,1,1096,1003,0,filler,1,
5936,Experiment Group,washed,0,0,spillover_1,1,1033,1003,0,filler,2,
5936,Experiment Group,the,0,0,spillover_2,1,1055,1003,0,filler,3,
5936,Experiment Group,dirty,0,0,0,1,1056,1003,0,filler,4,
5936,Experiment Group,dishes,0,0,0,1,3464,1003,0,filler,5,
5936,Experiment Group,The,0,0,0,1,648,1011,1,filler,0,
5936,Experiment Group,hammer,0,0,critical,1,895,1011,1,filler,1,
5936,Experiment Group,smashed,0,0,spillover_1,1,961,1011,1,filler,2,
5936,Experiment Group,the,0,0,spillover_2,1,807,1011,1,filler,3,
5936,Experiment Group,fragile,0,0,0,1,1040,1011,1,filler,4,
5936,Experiment Group,glass,0,0,0,1,1242,1011,1,filler,5,
5936,Experiment Group,The,0,0,0,1,791,1016,2,filler,0,
5936,Experiment Group,sore,0,0,critical,1,904,1016,2,filler,1,
5936,Experiment Group,the,0,0,spillover_1,1,1313,1016,2,filler,2,
5936,Experiment Group,athlete,0,0,spillover_2,1,1111,1016,2,filler,3,
5936,Experiment Group,massages,0,0,0,1,1855,1016,2,filler,4,
5936,Experiment Group,muscles,0,0,0,1,2442,1016,2,filler,5,
5936,Experiment Group,Featuring,0,0,0,1,992,122,3,critical,0,
5936,Experiment Group,the,0,0,0,1,1008,122,3,critical,1,
5936,Experiment Group,brick,0,0,0,1,1080,122,3,critical,2,
5936,Experiment Group,oven,0,0,0,1,1416,122,3,critical,3,
5936,Experiment Group,that,0,0,0,1,1224,122,3,critical,4,
5936,Experiment Group,he,0,0,0,1,1673,122,3,critical,5,
5936,Experiment Group,installed,0,0,0,1,1079,122,3,critical,6,
5936,Experiment Group,last,0,0,0,1,1272,122,3,critical,7,
5936,Experiment Group,"week,",0,0,0,1,1361,122,3,critical,8,
5936,Experiment Group,the,0,0,0,1,1127,122,3,critical,9,
5936,Experiment Group,chef,0,0,critical,1,1080,122,3,critical,10,
5936,Experiment Group,will,0,0,spillover_1,1,1240,122,3,critical,11,
5936,Experiment Group,monitor,0,0,spillover_2,1,1153,122,3,critical,12,
5936,Experiment Group,the,0,0,0,1,1183,122,3,critical,13,
5936,Experiment Group,kitchen,0,0,0,1,1337,122,3,critical,14,
5936,Experiment Group,The,0,0,0,1,983,1020,4,filler,0,
5936,Experiment Group,valuable,0,0,critical,1,1264,1020,4,filler,1,
5936,Experiment Group,the,0,0,spillover_1,1,1424,1020,4,filler,2,
5936,Experiment Group,shelf,0,0,spillover_2,1,1096,1020,4,filler,3,
5936,Experiment Group,jewelry,0,0,0,1,1199,1020,4,filler,4,
5936,Experiment Group,stores,0,0,0,1,1297,1020,4,filler,5,
5936,Experiment Group,The,0,0,0,1,855,1024,5,filler,0,
5936,Experiment Group,blank,0,0,critical,1,888,1024,5,filler,1,
5936,Experiment Group,the,0,0,spillover_1,1,952,1024,5,filler,2,
5936,Experiment Group,painter,0,0,spillover_2,1,992,1024,5,filler,3,
5936,Experiment Group,canvas,0,0,0,1,1094,1024,5,filler,4,
5936,Experiment Group,admires,0,0,0,1,1073,1024,5,filler,5,
5936,Experiment Group,Containing,0,0,0,1,959,22,6,critical,0,
5936,Experiment Group,all,0,0,0,1,920,22,6,critical,1,
5936,Experiment Group,the,0,0,0,1,1160,22,6,critical,2,
5936,Experiment Group,marbles,0,0,0,1,1310,22,6,critical,3,
5936,Experiment Group,that,0,0,0,1,1106,22,6,critical,4,
5936,Experiment Group,she,0,0,0,1,1160,22,6,critical,5,
5936,Experiment Group,"bought,",0,0,0,1,1961,22,6,critical,6,
5936,Experiment Group,the,0,0,0,1,990,22,6,critical,7,
5936,Experiment Group,girl,0,0,critical,1,962,22,6,critical,8,
5936,Experiment Group,will,0,0,spillover_1,1,1135,22,6,critical,9,
5936,Experiment Group,shake,0,0,spillover_2,1,1144,22,6,critical,10,
5936,Experiment Group,the,0,0,0,1,1095,22,6,critical,11,
5936,Experiment Group,jar,0,0,0,1,1337,22,6,critical,12,
5936,Experiment Group,violently,0,0,0,1,1777,22,6,critical,13,
5936,Experiment Group,The,0,0,0,1,816,1018,7,filler,0,
5936,Experiment Group,dangerous,0,0,critical,1,1120,1018,7,filler,1,
5936,Experiment Group,mixes,0,0,spillover_1,1,1296,1018,7,filler,2,
5936,Experiment Group,chemicals,0,0,spillover_2,1,1392,1018,7,filler,3,
5936,Experiment Group,scientist,0,0,0,1,1216,1018,7,filler,4,
5936,Experiment Group,the,0,0,0,1,1296,1018,7,filler,5,
5936,Experiment Group,Housing,0,0,0,0,986,92,8,critical,0,
5936,Experiment Group,only,0,0,0,0,991,92,8,critical,1,
5936,Experiment Group,new,0,0,0,0,1024,92,8,critical,2,
5936,Experiment Group,students,0,0,0,0,1112,92,8,critical,3,
5936,Experiment Group,that,0,0,0,0,1054,92,8,critical,4,
5936,Experiment Group,he,0,0,0,0,1274,92,8,critical,5,
5936,Experiment Group,"interviewed,",0,0,0,0,1320,92,8,critical,6,
5936,Experiment Group,the,0,0,0,0,1056,92,8,critical,7,
5936,Experiment Group,headmaster,0,0,critical,0,1192,92,8,critical,8,
5936,Experiment Group,will,0,0,spillover_1,0,1113,92,8,critical,9,
5936,Experiment Group,visit,0,0,spillover_2,0,1111,92,8,critical,10,
5936,Experiment Group,the,0,0,0,0,1120,92,8,critical,11,
5936,Experiment Group,dormitory,0,0,0,0,2040,92,8,critical,12,
5936,Experiment Group,The,0,0,0,1,848,1017,9,filler,0,
5936,Experiment Group,steady,0,0,critical,1,1017,1017,9,filler,1,
5936,Experiment Group,the,0,0,spillover_1,1,1064,1017,9,filler,2,
5936,Experiment Group,sails,0,0,spillover_2,1,1160,1017,9,filler,3,
5936,Experiment Group,captain,0,0,0,1,1200,1017,9,filler,4,
5936,Experiment Group,ship,0,0,0,1,1272,1017,9,filler,5,
5936,Experiment Group,The,0,0,0,0,880,1015,10,filler,0,
5936,Experiment Group,wet,0,0,critical,0,936,1015,10,filler,1,
5936,Experiment Group,heats,0,0,spillover_1,0,1494,1015,10,filler,2,
5936,Experiment Group,dryer,0,0,spillover_2,0,1507,1015,10,filler,3,
5936,Experiment Group,the,0,0,0,0,1111,1015,10,filler,4,
5936,Experiment Group,clothes,0,0,0,0,1096,1015,10,filler,5,
5936,Experiment Group,The,0,0,0,1,920,1008,11,filler,0,
5936,Experiment Group,child,0,0,critical,1,1040,1008,11,filler,1,
5936,Experiment Group,played,0,0,spillover_1,1,896,1008,11,filler,2,
5936,Experiment Group,the,0,0,spillover_2,1,1006,1008,11,filler,3,
5936,Experiment Group,loud,0,0,0,1,1050,1008,11,filler,4,
5936,Experiment Group,drums,0,0,0,1,1131,1008,11,filler,5,
5936,Experiment Group,The,0,0,0,1,960,1012,12,filler,0,
5936,Experiment Group,basket,0,0,critical,1,1016,1012,12,filler,1,
5936,Experiment Group,held,0,0,spillover_1,1,1094,1012,12,filler,2,
5936,Experiment Group,the,0,0,spillover_2,1,946,1012,12,filler,3,
5936,Experiment Group,expensive,0,0,0,1,1056,1012,12,filler,4,
5936,Experiment Group,cheeses,0,0,0,1,1294,1012,12,filler,5,
5936,Experiment Group,The,0,0,0,1,1024,1022,13,filler,0,
5936,Experiment Group,dying,0,0,critical,1,1289,1022,13,filler,1,
5936,Experiment Group,the,0,0,spillover_1,1,1109,1022,13,filler,2,
5936,Experiment Group,cable,0,0,spillover_2,1,984,1022,13,filler,3,
5936,Experiment Group,computer,0,0,0,1,1178,1022,13,filler,4,
5936,Experiment Group,charges,0,0,0,1,2080,1022,13,filler,5,
5936,Experiment Group,The,0,0,0,1,935,1007,14,filler,0,
5936,Experiment Group,librarian,0,0,critical,1,1254,1007,14,filler,1,
5936,Experiment Group,shelved,0,0,spillover_1,1,1042,1007,14,filler,2,
5936,Experiment Group,the,0,0,spillover_2,1,960,1007,14,filler,3,
5936,Experiment Group,heavy,0,0,0,1,1184,1007,14,filler,4,
5936,Experiment Group,book,0,0,0,1,1096,1007,14,filler,5,
5936,Experiment Group,Formed,0,0,0,0,1167,62,15,critical,0,
5936,Experiment Group,from,0,0,0,0,1056,62,15,critical,1,
5936,Experiment Group,red,0,0,0,0,1144,62,15,critical,2,
5936,Experiment Group,clay,0,0,0,0,1256,62,15,critical,3,
5936,Experiment Group,that,0,0,0,0,1096,62,15,critical,4,
5936,Experiment Group,he,0,0,0,0,1168,62,15,critical,5,
5936,Experiment Group,bought,0,0,0,0,1224,62,15,critical,6,
5936,Experiment Group,in,0,0,0,0,960,62,15,critical,7,
5936,Experiment Group,New,0,0,0,0,1344,62,15,critical,8,
5936,Experiment Group,"Mexico,",0,0,0,0,1688,62,15,critical,9,
5936,Experiment Group,the,0,0,0,0,992,62,15,critical,10,
5936,Experiment Group,artist,0,0,critical,0,1064,62,15,critical,11,
5936,Experiment Group,will,0,0,spillover_1,0,992,62,15,critical,12,
5936,Experiment Group,admire,0,0,spillover_2,0,1320,62,15,critical,13,
5936,Experiment Group,the,0,0,0,0,1288,62,15,critical,14,
5936,Experiment Group,flowerpot,0,0,0,0,2440,62,15,critical,15,
5936,Experiment Group,The,0,0,0,1,992,1023,16,filler,0,
5936,Experiment Group,acclaimed,0,0,critical,1,1144,1023,16,filler,1,
5936,Experiment Group,honors,0,0,spillover_1,1,1624,1023,16,filler,2,
5936,Experiment Group,artists,0,0,spillover_2,1,1368,1023,16,filler,3,
5936,Experiment Group,gala,0,0,0,1,1280,1023,16,filler,4,
5936,Experiment Group,the,0,0,0,1,1128,1023,16,filler,5,
5936,Experiment Group,Comprising,0,0,0,1,1138,102,17,critical,0,
5936,Experiment Group,six,0,0,0,1,1223,102,17,critical,1,
5936,Experiment Group,difficult,0,0,0,1,1721,102,17,critical,2,
5936,Experiment Group,classes,0,0,0,1,1424,102,17,critical,3,
5936,Experiment Group,that,0,0,0,1,1072,102,17,critical,4,
5936,Experiment Group,she,0,0,0,1,1168,102,17,critical,5,
5936,Experiment Group,designed,0,0,0,1,1472,102,17,critical,6,
5936,Experiment Group,"carefully,",0,0,0,1,1688,102,17,critical,7,
5936,Experiment Group,the,0,0,0,1,968,102,17,critical,8,
5936,Experiment Group,teacher,0,0,critical,1,1056,102,17,critical,9,
5936,Experiment Group,will,0,0,spillover_1,1,1080,102,17,critical,10,
5936,Experiment Group,manage,0,0,spillover_2,1,1192,102,17,critical,11,
5936,Experiment Group,her,0,0,0,1,1128,102,17,critical,12,
5936,Experiment Group,schedule,0,0,0,1,1239,102,17,critical,13,
5936,Experiment Group,The,0,0,0,1,904,1004,18,filler,0,
5936,Experiment Group,monkey,0,0,critical,1,1064,1004,18,filler,1,
5936,Experiment Group,ate,0,0,spillover_1,1,1048,1004,18,filler,2,
5936,Experiment Group,the,0,0,spillover_2,1,1000,1004,18,filler,3,
5936,Experiment Group,ripe,0,0,0,1,1144,1004,18,filler,4,
5936,Experiment Group,banana,0,0,0,1,1039,1004,18,filler,5,
5936,Experiment Group,The,0,0,0,1,936,1009,19,filler,0,
5936,Experiment Group,knight,0,0,critical,1,1008,1009,19,filler,1,
5936,Experiment Group,protected,0,0,spillover_1,1,1088,1009,19,filler,2,
5936,Experiment Group,the,0,0,spillover_2,1,968,1009,19,filler,3,
5936,Experiment Group,guarded,0,0,0,1,1064,1009,19,filler,4,
5936,Experiment Group,fortress,0,0,0,1,1014,1009,19,filler,5,
5936,Experiment Group,The,0,0,0,1,976,1019,20,filler,0,
5936,Experiment Group,difficult,0,0,critical,1,1136,1019,20,filler,1,
5936,Experiment Group,grades,0,0,spillover_1,1,1080,1019,20,filler,2,
5936,Experiment Group,exam,0,0,spillover_2,1,1480,1019,20,filler,3,
5936,Experiment Group,assistant,0,0,0,1,1272,1019,20,filler,4,
5936,Experiment Group,the,0,0,0,1,1184,1019,20,filler,5,
5936,Experiment Group,teaching,0,0,0,1,1368,1019,20,filler,6,
5936,Experiment Group,The,0,0,0,1,1000,1014,21,filler,0,
5936,Experiment Group,secret,0,0,critical,1,1054,1014,21,filler,1,
5936,Experiment Group,protects,0,0,spillover_1,1,1450,1014,21,filler,2,
5936,Experiment Group,lock,0,0,spillover_2,1,1360,1014,21,filler,3,
5936,Experiment Group,the,0,0,0,1,1198,1014,21,filler,4,
5936,Experiment Group,safe,0,0,0,1,1162,1014,21,filler,5,
5936,Experiment Group,Spanning,0,0,0,1,1001,111,22,critical,0,
5936,Experiment Group,the,0,0,0,1,936,111,22,critical,1,
5936,Experiment Group,peaceful,0,0,0,1,1313,111,22,critical,2,
5936,Experiment Group,countryside,0,0,0,1,1591,111,22,critical,3,
5936,Experiment Group,that,0,0,0,1,1144,111,22,critical,4,
5936,Experiment Group,was,0,0,0,1,1352,111,22,critical,5,
5936,Experiment Group,"conquerored,",0,0,0,1,2128,111,22,critical,6,
5936,Experiment Group,the,0,0,0,1,968,111,22,critical,7,
5936,Experiment Group,queen,0,0,critical,1,1008,111,22,critical,8,
5936,Experiment Group,will,0,0,spillover_1,1,982,111,22,critical,9,
5936,Experiment Group,rule,0,0,spillover_2,1,1082,111,22,critical,10,
5936,Experiment Group,the,0,0,0,1,1128,111,22,critical,11,
5936,Experiment Group,territories,0,0,0,1,1072,111,22,critical,12,
5936,Experiment Group,The,0,0,0,1,783,1013,23,filler,0,
5936,Experiment Group,messy,0,0,critical,1,1039,1013,23,filler,1,
5936,Experiment Group,cleans,0,0,spillover_1,1,1113,1013,23,filler,2,
5936,Experiment Group,student,0,0,spillover_2,1,1424,1013,23,filler,3,
5936,Experiment Group,room,0,0,0,1,1272,1013,23,filler,4,
5936,Experiment Group,the,0,0,0,1,992,1013,23,filler,5,
5936,Experiment Group,Derived,0,0,0,0,1312,44,24,critical,0,
5936,Experiment Group,from,0,0,0,0,1184,44,24,critical,1,
5936,Experiment Group,ancient,0,0,0,0,1160,44,24,critical,2,
5936,Experiment Group,Greek,0,0,0,0,1616,44,24,critical,3,
5936,Experiment Group,texts,0,0,0,0,1112,44,24,critical,4,
5936,Experiment Group,that,0,0,0,0,1024,44,24,critical,5,
5936,Experiment Group,she,0,0,0,0,1336,44,24,critical,6,
5936,Experiment Group,"unearthed,",0,0,0,0,1432,44,24,critical,7,
5936,Experiment Group,the,0,0,0,0,944,44,24,critical,8,
5936,Experiment Group,tome,0,0,critical,0,1312,44,24,critical,9,
5936,Experiment Group,will,0,0,spillover_1,0,1192,44,24,critical,10,
5936,Experiment Group,be,0,0,spillover_2,0,1102,44,24,critical,11,
5936,Experiment Group,studied,0,0,0,0,1122,44,24,critical,12,
5936,Experiment Group,carefully,0,0,0,0,1414,44,24,critical,13,
5936,Experiment Group,by,0,0,0,0,1048,44,24,critical,14,
5936,Experiment Group,the,0,0,0,0,858,44,24,critical,15,
5936,Experiment Group,student,0,0,0,0,1104,44,24,critical,16,
5936,Experiment Group,Consisting,0,0,0,1,1192,14,25,critical,0,
5936,Experiment Group,of,0,0,0,1,936,14,25,critical,1,
5936,Experiment Group,ten,0,0,0,1,1008,14,25,critical,2,
5936,Experiment Group,passages,0,0,0,1,1240,14,25,critical,3,
5936,Experiment Group,that,0,0,0,1,1038,14,25,critical,4,
5936,Experiment Group,she,0,0,0,1,1266,14,25,critical,5,
5936,Experiment Group,"wrote,",0,0,0,1,1264,14,25,critical,6,
5936,Experiment Group,a,0,0,0,1,944,14,25,critical,7,
5936,Experiment Group,book,0,0,critical,1,1032,14,25,critical,8,
5936,Experiment Group,will,0,0,spillover_1,1,1120,14,25,critical,9,
5936,Experiment Group,be,0,0,spillover_2,1,992,14,25,critical,10,
5936,Experiment Group,published,0,0,0,1,1048,14,25,critical,11,
5936,Experiment Group,by,0,0,0,1,1232,14,25,critical,12,
5936,Experiment Group,the,0,0,0,1,1118,14,25,critical,13,
5936,Experiment Group,author,0,0,0,1,1266,14,25,critical,14,
5936,Experiment Group,The,0,0,0,1,880,1002,26,filler,0,
5936,Experiment Group,professor,0,0,critical,1,1144,1002,26,filler,1,
5936,Experiment Group,played,0,0,spillover_1,1,1112,1002,26,filler,2,
5936,Experiment Group,the,0,0,spillover_2,1,1064,1002,26,filler,3,
5936,Experiment Group,lovely,0,0,0,1,1153,1002,26,filler,4,
5936,Experiment Group,violin,0,0,0,1,1207,1002,26,filler,5,
5936,Experiment Group,The,0,0,0,1,896,1001,27,filler,0,
5936,Experiment Group,gopher,0,0,critical,1,1088,1001,27,filler,1,
5936,Experiment Group,chased,0,0,spillover_1,1,1014,1001,27,filler,2,
5936,Experiment Group,the,0,0,spillover_2,1,914,1001,27,filler,3,
5936,Experiment Group,fearful,0,0,0,1,1000,1001,27,filler,4,
5936,Experiment Group,rabbit,0,0,0,1,1128,1001,27,filler,5,
5936,Experiment Group,The,0,0,0,1,832,1010,28,filler,0,
5936,Experiment Group,editor,0,0,critical,1,1104,1010,28,filler,1,
5936,Experiment Group,mentored,0,0,spillover_1,1,2792,1010,28,filler,2,
5936,Experiment Group,the,0,0,spillover_2,1,1128,1010,28,filler,3,
5936,Experiment Group,stressed,0,0,0,1,928,1010,28,filler,4,
5936,Experiment Group,writer,0,0,0,1,952,1010,28,filler,5,
5936,Experiment Group,Totaling,0,0,0,1,896,83,29,critical,0,
5936,Experiment Group,eight,0,0,0,1,928,83,29,critical,1,
5936,Experiment Group,athletes,0,0,0,1,1120,83,29,critical,2,
5936,Experiment Group,that,0,0,0,1,1064,83,29,critical,3,
5936,Experiment Group,was,0,0,0,1,1136,83,29,critical,4,
5936,Experiment Group,"recruited,",0,0,0,1,1488,83,29,critical,5,
5936,Experiment Group,the,0,0,0,1,1000,83,29,critical,6,
5936,Experiment Group,team,0,0,critical,1,1064,83,29,critical,7,
5936,Experiment Group,will,0,0,spillover_1,1,160,83,29,critical,8,
5936,Experiment Group,be,0,0,spillover_2,1,1136,83,29,critical,9,
5936,Experiment Group,managed,0,0,0,1,1168,83,29,critical,10,
5936,Experiment Group,by,0,0,0,1,864,83,29,critical,11,
5936,Experiment Group,the,0,0,0,1,808,83,29,critical,12,
5936,Experiment Group,coach,0,0,0,1,1176,83,29,critical,13,
5936,Experiment Group,The,0,0,0,1,689,1006,30,filler,0,
5936,Experiment Group,horse,0,0,critical,1,897,1006,30,filler,1,
5936,Experiment Group,chewed,0,0,spillover_1,1,910,1006,30,filler,2,
5936,Experiment Group,the,0,0,spillover_2,1,930,1006,30,filler,3,
5936,Experiment Group,sweet,0,0,0,1,1080,1006,30,filler,4,
5936,Experiment Group,apple,0,0,0,1,1200,1006,30,filler,5,
5936,Experiment Group,Composed,0,0,0,0,802,31,31,critical,0,
5936,Experiment Group,of,0,0,0,0,919,31,31,critical,1,
5936,Experiment Group,meringue,0,0,0,0,1721,31,31,critical,2,
5936,Experiment Group,that,0,0,0,0,1792,31,31,critical,3,
5936,Experiment Group,was,0,0,0,0,816,31,31,critical,4,
5936,Experiment Group,"prepared,",0,0,0,0,1271,31,31,critical,5,
5936,Experiment Group,the,0,0,0,0,1049,31,31,critical,6,
5936,Experiment Group,baker,0,0,critical,0,1039,31,31,critical,7,
5936,Experiment Group,will,0,0,spillover_1,0,977,31,31,critical,8,
5936,Experiment Group,present,0,0,spillover_2,0,1000,31,31,critical,9,
5936,Experiment Group,the,0,0,0,0,1086,31,31,critical,10,
5936,Experiment Group,dessert,0,0,0,0,1232,31,31,critical,11,
5936,Experiment Group,Running,0,0,0,1,1048,52,32,critical,0,
5936,Experiment Group,on,0,0,0,1,1103,52,32,critical,1,
5936,Experiment Group,energy,0,0,0,1,1209,52,32,critical,2,
5936,Experiment Group,that,0,0,0,1,1097,52,32,critical,3,
5936,Experiment Group,he,0,0,0,1,1078,52,32,critical,4,
5936,Experiment Group,harvested,0,0,0,1,1185,52,32,critical,5,
5936,Experiment Group,from,0,0,0,1,1127,52,32,critical,6,
5936,Experiment Group,solar,0,0,0,1,1008,52,32,critical,7,
5936,Experiment Group,"panels,",0,0,0,1,1408,52,32,critical,8,
5936,Experiment Group,the,0,0,0,1,985,52,32,critical,9,
5936,Experiment Group,environmentalist,0,0,critical,1,1230,52,32,critical,10,
5936,Experiment Group,will,0,0,spillover_1,1,1154,52,32,critical,11,
5936,Experiment Group,love,0,0,spillover_2,1,1104,52,32,critical,12,
5936,Experiment Group,his,0,0,0,1,1135,52,32,critical,13,
5936,Experiment Group,car,0,0,0,1,1153,52,32,critical,14,
5936,Experiment Group,deeply,0,0,0,1,1168,52,32,critical,15,
5936,Experiment Group,Built,0,0,0,1,969,72,33,critical,0,
5936,Experiment Group,from,0,0,0,1,896,72,33,critical,1,
5936,Experiment Group,the,0,0,0,1,887,72,33,critical,2,
5936,Experiment Group,ruins,0,0,0,1,1008,72,33,critical,3,
5936,Experiment Group,of,0,0,0,1,864,72,33,critical,4,
5936,Experiment Group,the,0,0,0,1,1018,72,33,critical,5,
5936,Experiment Group,town,0,0,0,1,959,72,33,critical,6,
5936,Experiment Group,hall,0,0,0,1,1064,72,33,critical,7,
5936,Experiment Group,that,0,0,0,1,993,72,33,critical,8,
5936,Experiment Group,he,0,0,0,1,1080,72,33,critical,9,
5936,Experiment Group,"demolished,",0,0,0,1,1440,72,33,critical,10,
5936,Experiment Group,the,0,0,0,1,1055,72,33,critical,11,
5936,Experiment Group,salesman,0,0,critical,1,912,72,33,critical,12,
5936,Experiment Group,will,0,0,spillover_1,1,1081,72,33,critical,13,
5936,Experiment Group,market,0,0,spillover_2,1,1270,72,33,critical,14,
5936,Experiment Group,the,0,0,0,1,1178,72,33,critical,15,
5936,Experiment Group,new,0,0,0,1,1239,72,33,critical,16,
5936,Experiment Group,skyscraper,0,0,0,1,1376,72,33,critical,17,
5936,Experiment Group,The,0,0,0,1,1103,1005,34,filler,0,
5936,Experiment Group,wrecking,0,0,critical,1,929,1005,34,filler,1,
5936,Experiment Group,ball,0,0,spillover_1,1,1054,1005,34,filler,2,
5936,Experiment Group,demolished,0,0,spillover_2,1,1001,1005,34,filler,3,
5936,Experiment Group,the,0,0,0,1,872,1005,34,filler,4,
5936,Experiment Group,decrepit,0,0,0,1,1169,1005,34,filler,5,
5936,Experiment Group,building,0,0,0,1,1120,1005,34,filler,6,
5936,Experiment Group,The,0,0,0,1,824,1021,35,filler,0,
5936,Experiment Group,broken,0,0,critical,1,928,1021,35,filler,1,
5936,Experiment Group,fixes,0,0,spillover_1,1,1184,1021,35,filler,2,
5936,Experiment Group,truck,0,0,spillover_2,1,1095,1021,35,filler,3,
5936,Experiment Group,engineer,0,0,0,1,1152,1021,35,filler,4,
5936,Experiment Group,the,0,0,0,1,1073,1021,35,filler,5,
5945,Experiment Group,The,0,0,0,1,726,1013,0,filler,0,
5945,Experiment Group,messy,0,0,critical,1,1408,1013,0,filler,1,
5945,Experiment Group,cleans,0,0,spillover_1,1,1983,1013,0,filler,2,
5945,Experiment Group,student,0,0,spillover_2,1,1544,1013,0,filler,3,
5945,Experiment Group,room,0,0,0,1,1050,1013,0,filler,4,
5945,Experiment Group,the,0,0,0,1,4077,1013,0,filler,5,
5945,Experiment Group,The,0,0,0,1,633,1005,1,filler,0,
5945,Experiment Group,wrecking,0,0,critical,1,655,1005,1,filler,1,
5945,Experiment Group,ball,0,0,spillover_1,1,653,1005,1,filler,2,
5945,Experiment Group,demolished,0,0,spillover_2,1,622,1005,1,filler,3,
5945,Experiment Group,the,0,0,0,1,658,1005,1,filler,4,
5945,Experiment Group,decrepit,0,0,0,1,655,1005,1,filler,5,
5945,Experiment Group,building,0,0,0,1,2835,1005,1,filler,6,
5945,Experiment Group,The,0,0,0,1,841,1012,2,filler,0,
5945,Experiment Group,basket,0,0,critical,1,640,1012,2,filler,1,
5945,Experiment Group,held,0,0,spillover_1,1,699,1012,2,filler,2,
5945,Experiment Group,the,0,0,spillover_2,1,669,1012,2,filler,3,
5945,Experiment Group,expensive,0,0,0,1,646,1012,2,filler,4,
5945,Experiment Group,cheeses,0,0,0,1,1328,1012,2,filler,5,
5945,Experiment Group,Formed,0,0,0,1,524,61,3,critical,0,
5945,Experiment Group,from,0,0,0,1,587,61,3,critical,1,
5945,Experiment Group,red,0,0,0,1,445,61,3,critical,2,
5945,Experiment Group,clay,0,0,0,1,689,61,3,critical,3,
5945,Experiment Group,that,0,0,0,1,690,61,3,critical,4,
5945,Experiment Group,was,0,0,0,1,506,61,3,critical,5,
5945,Experiment Group,bought,0,0,0,1,725,61,3,critical,6,
5945,Experiment Group,in,0,0,0,1,627,61,3,critical,7,
5945,Experiment Group,New,0,0,0,1,598,61,3,critical,8,
5945,Experiment Group,"Mexico,",0,0,0,1,844,61,3,critical,9,
5945,Experiment Group,the,0,0,0,1,444,61,3,critical,10,
5945,Experiment Group,artist,0,0,critical,1,845,61,3,critical,11,
5945,Experiment Group,will,0,0,spillover_1,1,1245,61,3,critical,12,
5945,Experiment Group,admire,0,0,spillover_2,1,907,61,3,critical,13,
5945,Experiment Group,the,0,0,0,1,813,61,3,critical,14,
5945,Experiment Group,flowerpot,0,0,0,1,1278,61,3,critical,15,
5945,Experiment Group,Totaling,0,0,0,1,575,81,4,critical,0,
5945,Experiment Group,eight,0,0,0,1,736,81,4,critical,1,
5945,Experiment Group,athletes,0,0,0,1,451,81,4,critical,2,
5945,Experiment Group,that,0,0,0,1,529,81,4,critical,3,
5945,Experiment Group,was,0,0,0,1,512,81,4,critical,4,
5945,Experiment Group,"recruited,",0,0,0,1,1008,81,4,critical,5,
5945,Experiment Group,the,0,0,0,1,724,81,4,critical,6,
5945,Experiment Group,coach,0,0,critical,1,830,81,4,critical,7,
5945,Experiment Group,will,0,0,spillover_1,1,526,81,4,critical,8,
5945,Experiment Group,manage,0,0,spillover_2,1,663,81,4,critical,9,
5945,Experiment Group,the,0,0,0,1,627,81,4,critical,10,
5945,Experiment Group,team,0,0,0,1,1506,81,4,critical,11,
5945,Experiment Group,The,0,0,0,1,512,1014,5,filler,0,
5945,Experiment Group,secret,0,0,critical,1,706,1014,5,filler,1,
5945,Experiment Group,protects,0,0,spillover_1,1,762,1014,5,filler,2,
5945,Experiment Group,lock,0,0,spillover_2,1,650,1014,5,filler,3,
5945,Experiment Group,the,0,0,0,1,708,1014,5,filler,4,
5945,Experiment Group,safe,0,0,0,1,1954,1014,5,filler,5,
5945,Experiment Group,The,0,0,0,1,666,1001,6,filler,0,
5945,Experiment Group,gopher,0,0,critical,1,677,1001,6,filler,1,
5945,Experiment Group,chased,0,0,spillover_1,1,348,1001,6,filler,2,
5945,Experiment Group,the,0,0,spillover_2,1,692,1001,6,filler,3,
5945,Experiment Group,fearful,0,0,0,1,574,1001,6,filler,4,
5945,Experiment Group,rabbit,0,0,0,1,1042,1001,6,filler,5,
5945,Experiment Group,The,0,0,0,1,500,1021,7,filler,0,
5945,Experiment Group,broken,0,0,critical,1,594,1021,7,filler,1,
5945,Experiment Group,fixes,0,0,spillover_1,1,796,1021,7,filler,2,
5945,Experiment Group,truck,0,0,spillover_2,1,499,1021,7,filler,3,
5945,Experiment Group,engineer,0,0,0,1,614,1021,7,filler,4,
5945,Experiment Group,the,0,0,0,1,1218,1021,7,filler,5,
5945,Experiment Group,The,0,0,0,1,491,1023,8,filler,0,
5945,Experiment Group,acclaimed,0,0,critical,1,517,1023,8,filler,1,
5945,Experiment Group,honors,0,0,spillover_1,1,576,1023,8,filler,2,
5945,Experiment Group,artists,0,0,spillover_2,1,635,1023,8,filler,3,
5945,Experiment Group,gala,0,0,0,1,590,1023,8,filler,4,
5945,Experiment Group,the,0,0,0,1,830,1023,8,filler,5,
5945,Experiment Group,Running,0,0,0,1,728,51,9,critical,0,
5945,Experiment Group,on,0,0,0,1,756,51,9,critical,1,
5945,Experiment Group,energy,0,0,0,1,653,51,9,critical,2,
5945,Experiment Group,that,0,0,0,1,541,51,9,critical,3,
5945,Experiment Group,was,0,0,0,1,555,51,9,critical,4,
5945,Experiment Group,harvested,0,0,0,1,556,51,9,critical,5,
5945,Experiment Group,from,0,0,0,1,668,51,9,critical,6,
5945,Experiment Group,solar,0,0,0,1,809,51,9,critical,7,
5945,Experiment Group,"panels,",0,0,0,1,642,51,9,critical,8,
5945,Experiment Group,the,0,0,0,1,544,51,9,critical,9,
5945,Experiment Group,environmentalist,0,0,critical,1,870,51,9,critical,10,
5945,Experiment Group,will,0,0,spillover_1,1,710,51,9,critical,11,
5945,Experiment Group,love,0,0,spillover_2,1,564,51,9,critical,12,
5945,Experiment Group,his,0,0,0,1,561,51,9,critical,13,
5945,Experiment Group,car,0,0,0,1,718,51,9,critical,14,
5945,Experiment Group,deeply,0,0,0,1,745,51,9,critical,15,
5945,Experiment Group,Built,0,0,0,1,472,72,10,critical,0,
5945,Experiment Group,from,0,0,0,1,428,72,10,critical,1,
5945,Experiment Group,the,0,0,0,1,420,72,10,critical,2,
5945,Experiment Group,ruins,0,0,0,1,529,72,10,critical,3,
5945,Experiment Group,of,0,0,0,1,476,72,10,critical,4,
5945,Experiment Group,the,0,0,0,1,566,72,10,critical,5,
5945,Experiment Group,town,0,0,0,1,1250,72,10,critical,6,
5945,Experiment Group,hall,0,0,0,1,454,72,10,critical,7,
5945,Experiment Group,that,0,0,0,1,544,72,10,critical,8,
5945,Experiment Group,he,0,0,0,1,487,72,10,critical,9,
5945,Experiment Group,"demolished,",0,0,0,1,563,72,10,critical,10,
5945,Experiment Group,the,0,0,0,1,594,72,10,critical,11,
5945,Experiment Group,salesman,0,0,critical,1,908,72,10,critical,12,
5945,Experiment Group,will,0,0,spillover_1,1,951,72,10,critical,13,
5945,Experiment Group,market,0,0,spillover_2,1,542,72,10,critical,14,
5945,Experiment Group,the,0,0,0,1,503,72,10,critical,15,
5945,Experiment Group,new,0,0,0,1,520,72,10,critical,16,
5945,Experiment Group,skyscraper,0,0,0,1,854,72,10,critical,17,
5945,Experiment Group,The,0,0,0,1,443,1010,11,filler,0,
5945,Experiment Group,editor,0,0,critical,1,694,1010,11,filler,1,
5945,Experiment Group,mentored,0,0,spillover_1,1,472,1010,11,filler,2,
5945,Experiment Group,the,0,0,spillover_2,1,480,1010,11,filler,3,
5945,Experiment Group,stressed,0,0,0,1,479,1010,11,filler,4,
5945,Experiment Group,writer,0,0,0,1,1017,1010,11,filler,5,
5945,Experiment Group,The,0,0,0,1,462,1004,12,filler,0,
5945,Experiment Group,monkey,0,0,critical,1,451,1004,12,filler,1,
5945,Experiment Group,ate,0,0,spillover_1,1,418,1004,12,filler,2,
5945,Experiment Group,the,0,0,spillover_2,1,458,1004,12,filler,3,
5945,Experiment Group,ripe,0,0,0,1,598,1004,12,filler,4,
5945,Experiment Group,banana,0,0,0,1,948,1004,12,filler,5,
5945,Experiment Group,The,0,0,0,0,619,1015,13,filler,0,
5945,Experiment Group,wet,0,0,critical,0,1302,1015,13,filler,1,
5945,Experiment Group,heats,0,0,spillover_1,0,455,1015,13,filler,2,
5945,Experiment Group,dryer,0,0,spillover_2,0,635,1015,13,filler,3,
5945,Experiment Group,the,0,0,0,0,478,1015,13,filler,4,
5945,Experiment Group,clothes,0,0,0,0,1009,1015,13,filler,5,
5945,Experiment Group,The,0,0,0,1,442,1003,14,filler,0,
5945,Experiment Group,woman,0,0,critical,1,558,1003,14,filler,1,
5945,Experiment Group,washed,0,0,spillover_1,1,464,1003,14,filler,2,
5945,Experiment Group,the,0,0,spillover_2,1,413,1003,14,filler,3,
5945,Experiment Group,dirty,0,0,0,1,501,1003,14,filler,4,
5945,Experiment Group,dishes,0,0,0,1,597,1003,14,filler,5,
5945,Experiment Group,The,0,0,0,1,580,1020,15,filler,0,
5945,Experiment Group,valuable,0,0,critical,1,467,1020,15,filler,1,
5945,Experiment Group,the,0,0,spillover_1,1,639,1020,15,filler,2,
5945,Experiment Group,shelf,0,0,spillover_2,1,474,1020,15,filler,3,
5945,Experiment Group,jewelry,0,0,0,1,556,1020,15,filler,4,
5945,Experiment Group,stores,0,0,0,1,642,1020,15,filler,5,
5945,Experiment Group,Housing,0,0,0,0,622,94,16,critical,0,
5945,Experiment Group,only,0,0,0,0,449,94,16,critical,1,
5945,Experiment Group,new,0,0,0,0,555,94,16,critical,2,
5945,Experiment Group,students,0,0,0,0,633,94,16,critical,3,
5945,Experiment Group,that,0,0,0,0,570,94,16,critical,4,
5945,Experiment Group,he,0,0,0,0,551,94,16,critical,5,
5945,Experiment Group,"interviewed,",0,0,0,0,805,94,16,critical,6,
5945,Experiment Group,the,0,0,0,0,704,94,16,critical,7,
5945,Experiment Group,dormitory,0,0,critical,0,584,94,16,critical,8,
5945,Experiment Group,will,0,0,spillover_1,0,564,94,16,critical,9,
5945,Experiment Group,be,0,0,spillover_2,0,554,94,16,critical,10,
5945,Experiment Group,visited,0,0,0,0,1438,94,16,critical,11,
5945,Experiment Group,by,0,0,0,0,463,94,16,critical,12,
5945,Experiment Group,the,0,0,0,0,527,94,16,critical,13,
5945,Experiment Group,headmaster,0,0,0,0,804,94,16,critical,14,
5945,Experiment Group,The,0,0,0,1,520,1018,17,filler,0,
5945,Experiment Group,dangerous,0,0,critical,1,657,1018,17,filler,1,
5945,Experiment Group,mixes,0,0,spillover_1,1,634,1018,17,filler,2,
5945,Experiment Group,chemicals,0,0,spillover_2,1,612,1018,17,filler,3,
5945,Experiment Group,scientist,0,0,0,1,626,1018,17,filler,4,
5945,Experiment Group,the,0,0,0,1,926,1018,17,filler,5,
5945,Experiment Group,The,0,0,0,1,498,1024,18,filler,0,
5945,Experiment Group,blank,0,0,critical,1,465,1024,18,filler,1,
5945,Experiment Group,the,0,0,spillover_1,1,454,1024,18,filler,2,
5945,Experiment Group,painter,0,0,spillover_2,1,509,1024,18,filler,3,
5945,Experiment Group,canvas,0,0,0,1,461,1024,18,filler,4,
5945,Experiment Group,admires,0,0,0,1,676,1024,18,filler,5,
5945,Experiment Group,The,0,0,0,1,548,1016,19,filler,0,
5945,Experiment Group,sore,0,0,critical,1,479,1016,19,filler,1,
5945,Experiment Group,the,0,0,spillover_1,1,526,1016,19,filler,2,
5945,Experiment Group,athlete,0,0,spillover_2,1,488,1016,19,filler,3,
5945,Experiment Group,massages,0,0,0,1,571,1016,19,filler,4,
5945,Experiment Group,muscles,0,0,0,1,1092,1016,19,filler,5,
5945,Experiment Group,The,0,0,0,1,466,1019,20,filler,0,
5945,Experiment Group,difficult,0,0,critical,1,662,1019,20,filler,1,
5945,Experiment Group,grades,0,0,spillover_1,1,532,1019,20,filler,2,
5945,Experiment Group,exam,0,0,spillover_2,1,519,1019,20,filler,3,
5945,Experiment Group,assistant,0,0,0,1,580,1019,20,filler,4,
5945,Experiment Group,the,0,0,0,1,603,1019,20,filler,5,
5945,Experiment Group,teaching,0,0,0,1,890,1019,20,filler,6,
5945,Experiment Group,The,0,0,0,1,489,1002,21,filler,0,
5945,Experiment Group,professor,0,0,critical,1,620,1002,21,filler,1,
5945,Experiment Group,played,0,0,spillover_1,1,539,1002,21,filler,2,
5945,Experiment Group,the,0,0,spillover_2,1,489,1002,21,filler,3,
5945,Experiment Group,lovely,0,0,0,1,548,1002,21,filler,4,
5945,Experiment Group,violin,0,0,0,1,723,1002,21,filler,5,
5945,Experiment Group,The,0,0,0,1,558,1006,22,filler,0,
5945,Experiment Group,horse,0,0,critical,1,483,1006,22,filler,1,
5945,Experiment Group,chewed,0,0,spillover_1,1,479,1006,22,filler,2,
5945,Experiment Group,the,0,0,spillover_2,1,463,1006,22,filler,3,
5945,Experiment Group,sweet,0,0,0,1,476,1006,22,filler,4,
5945,Experiment Group,apple,0,0,0,1,641,1006,22,filler,5,
5945,Experiment Group,Spanning,0,0,0,1,681,111,23,critical,0,
5945,Experiment Group,the,0,0,0,1,498,111,23,critical,1,
5945,Experiment Group,peaceful,0,0,0,1,477,111,23,critical,2,
5945,Experiment Group,countryside,0,0,0,1,550,111,23,critical,3,
5945,Experiment Group,that,0,0,0,1,483,111,23,critical,4,
5945,Experiment Group,was,0,0,0,1,554,111,23,critical,5,
5945,Experiment Group,"conquerored,",0,0,0,1,649,111,23,critical,6,
5945,Experiment Group,the,0,0,0,1,541,111,23,critical,7,
5945,Experiment Group,queen,0,0,critical,1,555,111,23,critical,8,
5945,Experiment Group,will,0,0,spillover_1,1,472,111,23,critical,9,
5945,Experiment Group,rule,0,0,spillover_2,1,1189,111,23,critical,10,
5945,Experiment Group,the,0,0,0,1,474,111,23,critical,11,
5945,Experiment Group,territories,0,0,0,1,878,111,23,critical,12,
5945,Experiment Group,The,0,0,0,1,513,1017,24,filler,0,
5945,Experiment Group,steady,0,0,critical,1,494,1017,24,filler,1,
5945,Experiment Group,the,0,0,spillover_1,1,416,1017,24,filler,2,
5945,Experiment Group,sails,0,0,spillover_2,1,544,1017,24,filler,3,
5945,Experiment Group,captain,0,0,0,1,570,1017,24,filler,4,
5945,Experiment Group,ship,0,0,0,1,877,1017,24,filler,5,
5945,Experiment Group,The,0,0,0,1,423,1007,25,filler,0,
5945,Experiment Group,librarian,0,0,critical,1,685,1007,25,filler,1,
5945,Experiment Group,shelved,0,0,spillover_1,1,596,1007,25,filler,2,
5945,Experiment Group,the,0,0,spillover_2,1,503,1007,25,filler,3,
5945,Experiment Group,heavy,0,0,0,1,488,1007,25,filler,4,
5945,Experiment Group,book,0,0,0,1,759,1007,25,filler,5,
5945,Experiment Group,Containing,0,0,0,1,715,23,26,critical,0,
5945,Experiment Group,all,0,0,0,1,642,23,26,critical,1,
5945,Experiment Group,the,0,0,0,1,472,23,26,critical,2,
5945,Experiment Group,marbles,0,0,0,1,580,23,26,critical,3,
5945,Experiment Group,that,0,0,0,1,603,23,26,critical,4,
5945,Experiment Group,was,0,0,0,1,471,23,26,critical,5,
5945,Experiment Group,"bought,",0,0,0,1,545,23,26,critical,6,
5945,Experiment Group,the,0,0,0,1,626,23,26,critical,7,
5945,Experiment Group,jar,0,0,critical,1,573,23,26,critical,8,
5945,Experiment Group,will,0,0,spillover_1,1,460,23,26,critical,9,
5945,Experiment Group,be,0,0,spillover_2,1,521,23,26,critical,10,
5945,Experiment Group,violently,0,0,0,1,440,23,26,critical,11,
5945,Experiment Group,shaken,0,0,0,1,796,23,26,critical,12,
5945,Experiment Group,by,0,0,0,1,532,23,26,critical,13,
5945,Experiment Group,the,0,0,0,1,788,23,26,critical,14,
5945,Experiment Group,girl,0,0,0,1,809,23,26,critical,15,
5945,Experiment Group,Comprising,0,0,0,1,532,104,27,critical,0,
5945,Experiment Group,six,0,0,0,1,555,104,27,critical,1,
5945,Experiment Group,difficult,0,0,0,1,634,104,27,critical,2,
5945,Experiment Group,classes,0,0,0,1,563,104,27,critical,3,
5945,Experiment Group,that,0,0,0,1,617,104,27,critical,4,
5945,Experiment Group,she,0,0,0,1,567,104,27,critical,5,
5945,Experiment Group,designed,0,0,0,1,601,104,27,critical,6,
5945,Experiment Group,"carefully,",0,0,0,1,564,104,27,critical,7,
5945,Experiment Group,the,0,0,0,1,530,104,27,critical,8,
5945,Experiment Group,schedule,0,0,critical,1,1019,104,27,critical,9,
5945,Experiment Group,will,0,0,spillover_1,1,564,104,27,critical,10,
5945,Experiment Group,be,0,0,spillover_2,1,473,104,27,critical,11,
5945,Experiment Group,managed,0,0,0,1,542,104,27,critical,12,
5945,Experiment Group,by,0,0,0,1,498,104,27,critical,13,
5945,Experiment Group,the,0,0,0,1,713,104,27,critical,14,
5945,Experiment Group,teacher,0,0,0,1,718,104,27,critical,15,
5945,Experiment Group,Composed,0,0,0,1,612,32,28,critical,0,
5945,Experiment Group,of,0,0,0,1,496,32,28,critical,1,
5945,Experiment Group,meringue,0,0,0,1,656,32,28,critical,2,
5945,Experiment Group,that,0,0,0,1,506,32,28,critical,3,
5945,Experiment Group,she,0,0,0,1,488,32,28,critical,4,
5945,Experiment Group,"prepared,",0,0,0,1,529,32,28,critical,5,
5945,Experiment Group,the,0,0,0,1,502,32,28,critical,6,
5945,Experiment Group,baker,0,0,critical,1,544,32,28,critical,7,
5945,Experiment Group,will,0,0,spillover_1,1,492,32,28,critical,8,
5945,Experiment Group,present,0,0,spillover_2,1,646,32,28,critical,9,
5945,Experiment Group,the,0,0,0,1,605,32,28,critical,10,
5945,Experiment Group,baked,0,0,0,1,588,32,28,critical,11,
5945,Experiment Group,Alaska,0,0,0,1,697,32,28,critical,12,
5945,Experiment Group,The,0,0,0,1,481,1011,29,filler,0,
5945,Experiment Group,hammer,0,0,critical,1,453,1011,29,filler,1,
5945,Experiment Group,smashed,0,0,spillover_1,1,521,1011,29,filler,2,
5945,Experiment Group,the,0,0,spillover_2,1,517,1011,29,filler,3,
5945,Experiment Group,fragile,0,0,0,1,540,1011,29,filler,4,
5945,Experiment Group,glass,0,0,0,1,619,1011,29,filler,5,
5945,Experiment Group,Consisting,0,0,0,1,658,13,30,critical,0,
5945,Experiment Group,of,0,0,0,1,498,13,30,critical,1,
5945,Experiment Group,ten,0,0,0,1,591,13,30,critical,2,
5945,Experiment Group,passages,0,0,0,1,485,13,30,critical,3,
5945,Experiment Group,that,0,0,0,1,528,13,30,critical,4,
5945,Experiment Group,was,0,0,0,1,495,13,30,critical,5,
5945,Experiment Group,"written,",0,0,0,1,516,13,30,critical,6,
5945,Experiment Group,a,0,0,0,1,474,13,30,critical,7,
5945,Experiment Group,book,0,0,critical,1,550,13,30,critical,8,
5945,Experiment Group,will,0,0,spillover_1,1,531,13,30,critical,9,
5945,Experiment Group,be,0,0,spillover_2,1,452,13,30,critical,10,
5945,Experiment Group,published,0,0,0,1,489,13,30,critical,11,
5945,Experiment Group,by,0,0,0,1,494,13,30,critical,12,
5945,Experiment Group,the,0,0,0,1,466,13,30,critical,13,
5945,Experiment Group,author,0,0,0,1,670,13,30,critical,14,
5945,Experiment Group,The,0,0,0,1,497,1009,31,filler,0,
5945,Experiment Group,knight,0,0,critical,1,473,1009,31,filler,1,
5945,Experiment Group,protected,0,0,spillover_1,1,455,1009,31,filler,2,
5945,Experiment Group,the,0,0,spillover_2,1,431,1009,31,filler,3,
5945,Experiment Group,guarded,0,0,0,1,487,1009,31,filler,4,
5945,Experiment Group,fortress,0,0,0,1,707,1009,31,filler,5,
5945,Experiment Group,Featuring,0,0,0,1,570,124,32,critical,0,
5945,Experiment Group,the,0,0,0,1,497,124,32,critical,1,
5945,Experiment Group,brick,0,0,0,1,538,124,32,critical,2,
5945,Experiment Group,oven,0,0,0,1,450,124,32,critical,3,
5945,Experiment Group,that,0,0,0,1,571,124,32,critical,4,
5945,Experiment Group,he,0,0,0,1,482,124,32,critical,5,
5945,Experiment Group,installed,0,0,0,1,657,124,32,critical,6,
5945,Experiment Group,last,0,0,0,1,446,124,32,critical,7,
5945,Experiment Group,"week,",0,0,0,1,496,124,32,critical,8,
5945,Experiment Group,the,0,0,0,1,581,124,32,critical,9,
5945,Experiment Group,kitchen,0,0,0,1,587,124,32,critical,10,
5945,Experiment Group,will,0,0,0,1,697,124,32,critical,11,
5945,Experiment Group,be,0,0,0,1,850,124,32,critical,12,
5945,Experiment Group,monitored,0,0,0,1,621,124,32,critical,13,
5945,Experiment Group,by,0,0,0,1,528,124,32,critical,14,
5945,Experiment Group,the,0,0,0,1,477,124,32,critical,15,
5945,Experiment Group,chef,0,0,critical,1,721,124,32,critical,16,
5945,Experiment Group,Derived,0,0,0,1,593,41,33,critical,0,
5945,Experiment Group,from,0,0,0,1,472,41,33,critical,1,
5945,Experiment Group,ancient,0,0,0,1,511,41,33,critical,2,
5945,Experiment Group,Greek,0,0,0,1,580,41,33,critical,3,
5945,Experiment Group,texts,0,0,0,1,504,41,33,critical,4,
5945,Experiment Group,that,0,0,0,1,490,41,33,critical,5,
5945,Experiment Group,was,0,0,0,1,462,41,33,critical,6,
5945,Experiment Group,"unearthed,",0,0,0,1,733,41,33,critical,7,
5945,Experiment Group,the,0,0,0,1,478,41,33,critical,8,
5945,Experiment Group,student,0,0,critical,1,523,41,33,critical,9,
5945,Experiment Group,will,0,0,spillover_1,1,543,41,33,critical,10,
5945,Experiment Group,study,0,0,spillover_2,1,879,41,33,critical,11,
5945,Experiment Group,the,0,0,0,1,568,41,33,critical,12,
5945,Experiment Group,tome,0,0,0,1,544,41,33,critical,13,
5945,Experiment Group,carefully,0,0,0,1,776,41,33,critical,14,
5945,Experiment Group,The,0,0,0,1,486,1008,34,filler,0,
5945,Experiment Group,child,0,0,critical,1,481,1008,34,filler,1,
5945,Experiment Group,played,0,0,spillover_1,1,433,1008,34,filler,2,
5945,Experiment Group,the,0,0,spillover_2,1,457,1008,34,filler,3,
5945,Experiment Group,loud,0,0,0,1,472,1008,34,filler,4,
5945,Experiment Group,drums,0,0,0,1,654,1008,34,filler,5,
5945,Experiment Group,The,0,0,0,1,444,1022,35,filler,0,
5945,Experiment Group,dying,0,0,critical,1,406,1022,35,filler,1,
5945,Experiment Group,the,0,0,spillover_1,1,451,1022,35,filler,2,
5945,Experiment Group,cable,0,0,spillover_2,1,482,1022,35,filler,3,
5945,Experiment Group,computer,0,0,0,1,479,1022,35,filler,4,
5945,Experiment Group,charges,0,0,0,1,612,1022,35,filler,5,
5954,Experiment Group,Containing,0,0,0,1,943,21,0,critical,0,
5954,Experiment Group,all,0,0,0,1,748,21,0,critical,1,
5954,Experiment Group,the,0,0,0,1,932,21,0,critical,2,
5954,Experiment Group,marbles,0,0,0,1,789,21,0,critical,3,
5954,Experiment Group,that,0,0,0,1,695,21,0,critical,4,
5954,Experiment Group,was,0,0,0,1,640,21,0,critical,5,
5954,Experiment Group,"bought,",0,0,0,1,916,21,0,critical,6,
5954,Experiment Group,the,0,0,0,1,635,21,0,critical,7,
5954,Experiment Group,girl,0,0,critical,1,639,21,0,critical,8,
5954,Experiment Group,will,0,0,spillover_1,1,880,21,0,critical,9,
5954,Experiment Group,shake,0,0,spillover_2,1,686,21,0,critical,10,
5954,Experiment Group,the,0,0,0,1,538,21,0,critical,11,
5954,Experiment Group,jar,0,0,0,1,730,21,0,critical,12,
5954,Experiment Group,violently,0,0,0,1,1102,21,0,critical,13,
5954,Experiment Group,Built,0,0,0,1,715,72,1,critical,0,
5954,Experiment Group,from,0,0,0,1,698,72,1,critical,1,
5954,Experiment Group,the,0,0,0,1,691,72,1,critical,2,
5954,Experiment Group,ruins,0,0,0,1,710,72,1,critical,3,
5954,Experiment Group,of,0,0,0,1,688,72,1,critical,4,
5954,Experiment Group,the,0,0,0,1,501,72,1,critical,5,
5954,Experiment Group,town,0,0,0,1,692,72,1,critical,6,
5954,Experiment Group,hall,0,0,0,1,607,72,1,critical,7,
5954,Experiment Group,that,0,0,0,1,741,72,1,critical,8,
5954,Experiment Group,he,0,0,0,1,575,72,1,critical,9,
5954,Experiment Group,"demolished,",0,0,0,1,809,72,1,critical,10,
5954,Experiment Group,the,0,0,0,1,582,72,1,critical,11,
5954,Experiment Group,salesman,0,0,critical,1,601,72,1,critical,12,
5954,Experiment Group,will,0,0,spillover_1,1,835,72,1,critical,13,
5954,Experiment Group,market,0,0,spillover_2,1,810,72,1,critical,14,
5954,Experiment Group,the,0,0,0,1,645,72,1,critical,15,
5954,Experiment Group,new,0,0,0,1,601,72,1,critical,16,
5954,Experiment Group,skyscraper,0,0,0,1,2593,72,1,critical,17,
5954,Experiment Group,The,0,0,0,1,493,1001,2,filler,0,
5954,Experiment Group,gopher,0,0,critical,1,747,1001,2,filler,1,
5954,Experiment Group,chased,0,0,spillover_1,1,747,1001,2,filler,2,
5954,Experiment Group,the,0,0,spillover_2,1,722,1001,2,filler,3,
5954,Experiment Group,fearful,0,0,0,1,755,1001,2,filler,4,
5954,Experiment Group,rabbit,0,0,0,1,2788,1001,2,filler,5,
5954,Experiment Group,The,0,0,0,1,504,1019,3,filler,0,
5954,Experiment Group,difficult,0,0,critical,1,593,1019,3,filler,1,
5954,Experiment Group,grades,0,0,spillover_1,1,653,1019,3,filler,2,
5954,Experiment Group,exam,0,0,spillover_2,1,1560,1019,3,filler,3,
5954,Experiment Group,assistant,0,0,0,1,722,1019,3,filler,4,
5954,Experiment Group,the,0,0,0,1,748,1019,3,filler,5,
5954,Experiment Group,teaching,0,0,0,1,813,1019,3,filler,6,
5954,Experiment Group,Spanning,0,0,0,1,549,113,4,critical,0,
5954,Experiment Group,the,0,0,0,1,515,113,4,critical,1,
5954,Experiment Group,peaceful,0,0,0,1,507,113,4,critical,2,
5954,Experiment Group,countryside,0,0,0,1,712,113,4,critical,3,
5954,Experiment Group,that,0,0,0,1,669,113,4,critical,4,
5954,Experiment Group,was,0,0,0,1,498,113,4,critical,5,
5954,Experiment Group,"conquerored,",0,0,0,1,826,113,4,critical,6,
5954,Experiment Group,the,0,0,0,1,551,113,4,critical,7,
5954,Experiment Group,territories,0,0,0,1,682,113,4,critical,8,
5954,Experiment Group,will,0,0,0,1,716,113,4,critical,9,
5954,Experiment Group,be,0,0,0,1,639,113,4,critical,10,
5954,Experiment Group,ruled,0,0,0,1,814,113,4,critical,11,
5954,Experiment Group,by,0,0,0,1,574,113,4,critical,12,
5954,Experiment Group,the,0,0,0,1,507,113,4,critical,13,
5954,Experiment Group,queen,0,0,critical,1,795,113,4,critical,14,
5954,Experiment Group,The,0,0,0,1,510,1024,5,filler,0,
5954,Experiment Group,blank,0,0,critical,1,587,1024,5,filler,1,
5954,Experiment Group,the,0,0,spillover_1,1,1561,1024,5,filler,2,
5954,Experiment Group,painter,0,0,spillover_2,1,1025,1024,5,filler,3,
5954,Experiment Group,canvas,0,0,0,1,889,1024,5,filler,4,
5954,Experiment Group,admires,0,0,0,1,1184,1024,5,filler,5,
5954,Experiment Group,The,0,0,0,1,514,1017,6,filler,0,
5954,Experiment Group,steady,0,0,critical,1,623,1017,6,filler,1,
5954,Experiment Group,the,0,0,spillover_1,1,1208,1017,6,filler,2,
5954,Experiment Group,sails,0,0,spillover_2,1,2095,1017,6,filler,3,
5954,Experiment Group,captain,0,0,0,1,954,1017,6,filler,4,
5954,Experiment Group,ship,0,0,0,1,748,1017,6,filler,5,
5954,Experiment Group,The,0,0,0,1,510,1013,7,filler,0,
5954,Experiment Group,messy,0,0,critical,1,619,1013,7,filler,1,
5954,Experiment Group,cleans,0,0,spillover_1,1,959,1013,7,filler,2,
5954,Experiment Group,student,0,0,spillover_2,1,1074,1013,7,filler,3,
5954,Experiment Group,room,0,0,0,1,803,1013,7,filler,4,
5954,Experiment Group,the,0,0,0,1,1031,1013,7,filler,5,
5954,Experiment Group,The,0,0,0,1,529,1023,8,filler,0,
5954,Experiment Group,acclaimed,0,0,critical,1,665,1023,8,filler,1,
5954,Experiment Group,honors,0,0,spillover_1,1,862,1023,8,filler,2,
5954,Experiment Group,artists,0,0,spillover_2,1,878,1023,8,filler,3,
5954,Experiment Group,gala,0,0,0,1,747,1023,8,filler,4,
5954,Experiment Group,the,0,0,0,1,896,1023,8,filler,5,
5954,Experiment Group,The,0,0,0,1,484,1011,9,filler,0,
5954,Experiment Group,hammer,0,0,critical,1,613,1011,9,filler,1,
5954,Experiment Group,smashed,0,0,spillover_1,1,669,1011,9,filler,2,
5954,Experiment Group,the,0,0,spillover_2,1,600,1011,9,filler,3,
5954,Experiment Group,fragile,0,0,0,1,596,1011,9,filler,4,
5954,Experiment Group,glass,0,0,0,1,651,1011,9,filler,5,
5954,Experiment Group,The,0,0,0,1,490,1002,10,filler,0,
5954,Experiment Group,professor,0,0,critical,1,552,1002,10,filler,1,
5954,Experiment Group,played,0,0,spillover_1,1,685,1002,10,filler,2,
5954,Experiment Group,the,0,0,spillover_2,1,671,1002,10,filler,3,
5954,Experiment Group,lovely,0,0,0,1,705,1002,10,filler,4,
5954,Experiment Group,violin,0,0,0,1,748,1002,10,filler,5,
5954,Experiment Group,The,0,0,0,0,1213,1015,11,filler,0,
5954,Experiment Group,wet,0,0,critical,0,638,1015,11,filler,1,
5954,Experiment Group,heats,0,0,spillover_1,0,1259,1015,11,filler,2,
5954,Experiment Group,dryer,0,0,spillover_2,0,732,1015,11,filler,3,
5954,Experiment Group,the,0,0,0,0,752,1015,11,filler,4,
5954,Experiment Group,clothes,0,0,0,0,776,1015,11,filler,5,
5954,Experiment Group,The,0,0,0,1,512,1007,12,filler,0,
5954,Experiment Group,librarian,0,0,critical,1,601,1007,12,filler,1,
5954,Experiment Group,shelved,0,0,spillover_1,1,672,1007,12,filler,2,
5954,Experiment Group,the,0,0,spillover_2,1,621,1007,12,filler,3,
5954,Experiment Group,heavy,0,0,0,1,979,1007,12,filler,4,
5954,Experiment Group,book,0,0,0,1,821,1007,12,filler,5,
5954,Experiment Group,The,0,0,0,1,455,1009,13,filler,0,
5954,Experiment Group,knight,0,0,critical,1,598,1009,13,filler,1,
5954,Experiment Group,protected,0,0,spillover_1,1,599,1009,13,filler,2,
5954,Experiment Group,the,0,0,spillover_2,1,498,1009,13,filler,3,
5954,Experiment Group,guarded,0,0,0,1,776,1009,13,filler,4,
5954,Experiment Group,fortress,0,0,0,1,693,1009,13,filler,5,
5954,Experiment Group,The,0,0,0,1,446,1004,14,filler,0,
5954,Experiment Group,monkey,0,0,critical,1,595,1004,14,filler,1,
5954,Experiment Group,ate,0,0,spillover_1,1,580,1004,14,filler,2,
5954,Experiment Group,the,0,0,spillover_2,1,683,1004,14,filler,3,
5954,Experiment Group,ripe,0,0,0,1,697,1004,14,filler,4,
5954,Experiment Group,banana,0,0,0,1,521,1004,14,filler,5,
5954,Experiment Group,Consisting,0,0,0,1,553,13,15,critical,0,
5954,Experiment Group,of,0,0,0,1,518,13,15,critical,1,
5954,Experiment Group,ten,0,0,0,1,484,13,15,critical,2,
5954,Experiment Group,passages,0,0,0,1,452,13,15,critical,3,
5954,Experiment Group,that,0,0,0,1,727,13,15,critical,4,
5954,Experiment Group,was,0,0,0,1,466,13,15,critical,5,
5954,Experiment Group,"written,",0,0,0,1,795,13,15,critical,6,
5954,Experiment Group,a,0,0,0,1,574,13,15,critical,7,
5954,Experiment Group,book,0,0,critical,1,485,13,15,critical,8,
5954,Experiment Group,will,0,0,spillover_1,1,757,13,15,critical,9,
5954,Experiment Group,be,0,0,spillover_2,1,565,13,15,critical,10,
5954,Experiment Group,published,0,0,0,1,659,13,15,critical,11,
5954,Experiment Group,by,0,0,0,1,630,13,15,critical,12,
5954,Experiment Group,the,0,0,0,1,588,13,15,critical,13,
5954,Experiment Group,author,0,0,0,1,873,13,15,critical,14,
5954,Experiment Group,The,0,0,0,1,499,1005,16,filler,0,
5954,Experiment Group,wrecking,0,0,critical,1,632,1005,16,filler,1,
5954,Experiment Group,ball,0,0,spillover_1,1,571,1005,16,filler,2,
5954,Experiment Group,demolished,0,0,spillover_2,1,660,1005,16,filler,3,
5954,Experiment Group,the,0,0,0,1,542,1005,16,filler,4,
5954,Experiment Group,decrepit,0,0,0,1,693,1005,16,filler,5,
5954,Experiment Group,building,0,0,0,1,583,1005,16,filler,6,
5954,Experiment Group,The,0,0,0,1,498,1003,17,filler,0,
5954,Experiment Group,woman,0,0,critical,1,626,1003,17,filler,1,
5954,Experiment Group,washed,0,0,spillover_1,1,857,1003,17,filler,2,
5954,Experiment Group,the,0,0,spillover_2,1,761,1003,17,filler,3,
5954,Experiment Group,dirty,0,0,0,1,741,1003,17,filler,4,
5954,Experiment Group,dishes,0,0,0,1,791,1003,17,filler,5,
5954,Experiment Group,Featuring,0,0,0,1,517,123,18,critical,0,
5954,Experiment Group,the,0,0,0,1,545,123,18,critical,1,
5954,Experiment Group,brick,0,0,0,1,613,123,18,critical,2,
5954,Experiment Group,oven,0,0,0,1,617,123,18,critical,3,
5954,Experiment Group,that,0,0,0,1,620,123,18,critical,4,
5954,Experiment Group,was,0,0,0,1,566,123,18,critical,5,
5954,Experiment Group,installed,0,0,0,1,561,123,18,critical,6,
5954,Experiment Group,last,0,0,0,1,456,123,18,critical,7,
5954,Experiment Group,"week,",0,0,0,1,529,123,18,critical,8,
5954,Experiment Group,the,0,0,0,1,385,123,18,critical,9,
5954,Experiment Group,kitchen,0,0,0,1,454,123,18,critical,10,
5954,Experiment Group,will,0,0,0,1,628,123,18,critical,11,
5954,Experiment Group,be,0,0,0,1,455,123,18,critical,12,
5954,Experiment Group,monitored,0,0,0,1,719,123,18,critical,13,
5954,Experiment Group,by,0,0,0,1,575,123,18,critical,14,
5954,Experiment Group,the,0,0,0,1,525,123,18,critical,15,
5954,Experiment Group,chef,0,0,critical,1,784,123,18,critical,16,
5954,Experiment Group,The,0,0,0,1,441,1016,19,filler,0,
5954,Experiment Group,sore,0,0,critical,1,560,1016,19,filler,1,
5954,Experiment Group,the,0,0,spillover_1,1,833,1016,19,filler,2,
5954,Experiment Group,athlete,0,0,spillover_2,1,549,1016,19,filler,3,
5954,Experiment Group,massages,0,0,0,1,610,1016,19,filler,4,
5954,Experiment Group,muscles,0,0,0,1,658,1016,19,filler,5,
5954,Experiment Group,Totaling,0,0,0,1,503,84,20,critical,0,
5954,Experiment Group,eight,0,0,0,1,570,84,20,critical,1,
5954,Experiment Group,athletes,0,0,0,1,698,84,20,critical,2,
5954,Experiment Group,that,0,0,0,1,618,84,20,critical,3,
5954,Experiment Group,he,0,0,0,1,716,84,20,critical,4,
5954,Experiment Group,"recruited,",0,0,0,1,784,84,20,critical,5,
5954,Experiment Group,the,0,0,0,1,597,84,20,critical,6,
5954,Experiment Group,team,0,0,critical,1,629,84,20,critical,7,
5954,Experiment Group,will,0,0,spillover_1,1,616,84,20,critical,8,
5954,Experiment Group,be,0,0,spillover_2,1,844,84,20,critical,9,
5954,Experiment Group,managed,0,0,0,1,738,84,20,critical,10,
5954,Experiment Group,by,0,0,0,1,517,84,20,critical,11,
5954,Experiment Group,the,0,0,0,1,464,84,20,critical,12,
5954,Experiment Group,coach,0,0,0,1,1060,84,20,critical,13,
5954,Experiment Group,The,0,0,0,1,348,1010,21,filler,0,
5954,Experiment Group,editor,0,0,critical,1,417,1010,21,filler,1,
5954,Experiment Group,mentored,0,0,spillover_1,1,505,1010,21,filler,2,
5954,Experiment Group,the,0,0,spillover_2,1,1190,1010,21,filler,3,
5954,Experiment Group,stressed,0,0,0,1,692,1010,21,filler,4,
5954,Experiment Group,writer,0,0,0,1,839,1010,21,filler,5,
5954,Experiment Group,The,0,0,0,1,514,1006,22,filler,0,
5954,Experiment Group,horse,0,0,critical,1,626,1006,22,filler,1,
5954,Experiment Group,chewed,0,0,spillover_1,1,627,1006,22,filler,2,
5954,Experiment Group,the,0,0,spillover_2,1,384,1006,22,filler,3,
5954,Experiment Group,sweet,0,0,0,1,422,1006,22,filler,4,
5954,Experiment Group,apple,0,0,0,1,484,1006,22,filler,5,
5954,Experiment Group,The,0,0,0,1,388,1008,23,filler,0,
5954,Experiment Group,child,0,0,critical,1,432,1008,23,filler,1,
5954,Experiment Group,played,0,0,spillover_1,1,444,1008,23,filler,2,
5954,Experiment Group,the,0,0,spillover_2,1,448,1008,23,filler,3,
5954,Experiment Group,loud,0,0,0,1,471,1008,23,filler,4,
5954,Experiment Group,drums,0,0,0,1,463,1008,23,filler,5,
5954,Experiment Group,The,0,0,0,1,374,1021,24,filler,0,
5954,Experiment Group,broken,0,0,critical,1,427,1021,24,filler,1,
5954,Experiment Group,fixes,0,0,spillover_1,1,512,1021,24,filler,2,
5954,Experiment Group,truck,0,0,spillover_2,1,727,1021,24,filler,3,
5954,Experiment Group,engineer,0,0,0,1,552,1021,24,filler,4,
5954,Experiment Group,the,0,0,0,1,540,1021,24,filler,5,
5954,Experiment Group,Comprising,0,0,0,1,462,104,25,critical,0,
5954,Experiment Group,six,0,0,0,1,449,104,25,critical,1,
5954,Experiment Group,difficult,0,0,0,1,494,104,25,critical,2,
5954,Experiment Group,classes,0,0,0,1,538,104,25,critical,3,
5954,Experiment Group,that,0,0,0,1,612,104,25,critical,4,
5954,Experiment Group,she,0,0,0,1,589,104,25,critical,5,
5954,Experiment Group,designed,0,0,0,1,707,104,25,critical,6,
5954,Experiment Group,"carefully,",0,0,0,1,670,104,25,critical,7,
5954,Experiment Group,the,0,0,0,1,539,104,25,critical,8,
5954,Experiment Group,schedule,0,0,critical,1,636,104,25,critical,9,
5954,Experiment Group,will,0,0,spillover_1,1,561,104,25,critical,10,
5954,Experiment Group,be,0,0,spillover_2,1,500,104,25,critical,11,
5954,Experiment Group,managed,0,0,0,1,511,104,25,critical,12,
5954,Experiment Group,by,0,0,0,1,486,104,25,critical,13,
5954,Experiment Group,the,0,0,0,1,569,104,25,critical,14,
5954,Experiment Group,teacher,0,0,0,1,616,104,25,critical,15,
5954,Experiment Group,The,0,0,0,1,404,1012,26,filler,0,
5954,Experiment Group,basket,0,0,critical,1,584,1012,26,filler,1,
5954,Experiment Group,held,0,0,spillover_1,1,815,1012,26,filler,2,
5954,Experiment Group,the,0,0,spillover_2,1,483,1012,26,filler,3,
5954,Experiment Group,expensive,0,0,0,1,461,1012,26,filler,4,
5954,Experiment Group,cheeses,0,0,0,1,492,1012,26,filler,5,
5954,Experiment Group,Composed,0,0,0,0,482,33,27,critical,0,
5954,Experiment Group,of,0,0,0,0,415,33,27,critical,1,
5954,Experiment Group,meringue,0,0,0,0,419,33,27,critical,2,
5954,Experiment Group,that,0,0,0,0,870,33,27,critical,3,
5954,Experiment Group,was,0,0,0,0,503,33,27,critical,4,
5954,Experiment Group,"prepared,",0,0,0,0,500,33,27,critical,5,
5954,Experiment Group,the,0,0,0,0,484,33,27,critical,6,
5954,Experiment Group,dessert,0,0,critical,0,480,33,27,critical,7,
5954,Experiment Group,will,0,0,spillover_1,0,625,33,27,critical,8,
5954,Experiment Group,be,0,0,spillover_2,0,495,33,27,critical,9,
5954,Experiment Group,presented,0,0,0,0,499,33,27,critical,10,
5954,Experiment Group,by,0,0,0,0,440,33,27,critical,11,
5954,Experiment Group,the,0,0,0,0,420,33,27,critical,12,
5954,Experiment Group,baker,0,0,0,0,742,33,27,critical,13,
5954,Experiment Group,Running,0,0,0,1,455,54,28,critical,0,
5954,Experiment Group,on,0,0,0,1,465,54,28,critical,1,
5954,Experiment Group,energy,0,0,0,1,702,54,28,critical,2,
5954,Experiment Group,that,0,0,0,1,531,54,28,critical,3,
5954,Experiment Group,he,0,0,0,1,485,54,28,critical,4,
5954,Experiment Group,harvested,0,0,0,1,542,54,28,critical,5,
5954,Experiment Group,from,0,0,0,1,474,54,28,critical,6,
5954,Experiment Group,solar,0,0,0,1,430,54,28,critical,7,
5954,Experiment Group,"panels,",0,0,0,1,422,54,28,critical,8,
5954,Experiment Group,the,0,0,0,1,427,54,28,critical,9,
5954,Experiment Group,car,0,0,critical,1,470,54,28,critical,10,
5954,Experiment Group,will,0,0,spillover_1,1,390,54,28,critical,11,
5954,Experiment Group,be,0,0,spillover_2,1,406,54,28,critical,12,
5954,Experiment Group,loved,0,0,0,1,476,54,28,critical,13,
5954,Experiment Group,deeply,0,0,0,1,590,54,28,critical,14,
5954,Experiment Group,by,0,0,0,1,457,54,28,critical,15,
5954,Experiment Group,the,0,0,0,1,734,54,28,critical,16,
5954,Experiment Group,environmentalist,0,0,0,1,709,54,28,critical,17,
5954,Experiment Group,The,0,0,0,1,302,1018,29,filler,0,
5954,Experiment Group,dangerous,0,0,critical,1,285,1018,29,filler,1,
5954,Experiment Group,mixes,0,0,spillover_1,1,453,1018,29,filler,2,
5954,Experiment Group,chemicals,0,0,spillover_2,1,489,1018,29,filler,3,
5954,Experiment Group,scientist,0,0,0,1,624,1018,29,filler,4,
5954,Experiment Group,the,0,0,0,1,469,1018,29,filler,5,
5954,Experiment Group,Formed,0,0,0,1,388,63,30,critical,0,
5954,Experiment Group,from,0,0,0,1,442,63,30,critical,1,
5954,Experiment Group,red,0,0,0,1,506,63,30,critical,2,
5954,Experiment Group,clay,0,0,0,1,512,63,30,critical,3,
5954,Experiment Group,that,0,0,0,1,436,63,30,critical,4,
5954,Experiment Group,was,0,0,0,1,439,63,30,critical,5,
5954,Experiment Group,bought,0,0,0,1,490,63,30,critical,6,
5954,Experiment Group,in,0,0,0,1,481,63,30,critical,7,
5954,Experiment Group,New,0,0,0,1,819,63,30,critical,8,
5954,Experiment Group,"Mexico,",0,0,0,1,559,63,30,critical,9,
5954,Experiment Group,the,0,0,0,1,478,63,30,critical,10,
5954,Experiment Group,flowerpot,0,0,critical,1,465,63,30,critical,11,
5954,Experiment Group,will,0,0,spillover_1,1,382,63,30,critical,12,
5954,Experiment Group,be,0,0,spillover_2,1,453,63,30,critical,13,
5954,Experiment Group,admired,0,0,0,1,607,63,30,critical,14,
5954,Experiment Group,by,0,0,0,1,512,63,30,critical,15,
5954,Experiment Group,the,0,0,0,1,467,63,30,critical,16,
5954,Experiment Group,artist,0,0,0,1,647,63,30,critical,17,
5954,Experiment Group,The,0,0,0,1,362,1022,31,filler,0,
5954,Experiment Group,dying,0,0,critical,1,539,1022,31,filler,1,
5954,Experiment Group,the,0,0,spillover_1,1,1873,1022,31,filler,2,
5954,Experiment Group,cable,0,0,spillover_2,1,599,1022,31,filler,3,
5954,Experiment Group,computer,0,0,0,1,516,1022,31,filler,4,
5954,Experiment Group,charges,0,0,0,1,593,1022,31,filler,5,
5954,Experiment Group,The,0,0,0,1,424,1020,32,filler,0,
5954,Experiment Group,valuable,0,0,critical,1,461,1020,32,filler,1,
5954,Experiment Group,the,0,0,spillover_1,1,795,1020,32,filler,2,
5954,Experiment Group,shelf,0,0,spillover_2,1,536,1020,32,filler,3,
5954,Experiment Group,jewelry,0,0,0,1,933,1020,32,filler,4,
5954,Experiment Group,stores,0,0,0,1,587,1020,32,filler,5,
5954,Experiment Group,The,0,0,0,1,446,1014,33,filler,0,
5954,Experiment Group,secret,0,0,critical,1,555,1014,33,filler,1,
5954,Experiment Group,protects,0,0,spillover_1,1,537,1014,33,filler,2,
5954,Experiment Group,lock,0,0,spillover_2,1,687,1014,33,filler,3,
5954,Experiment Group,the,0,0,0,1,488,1014,33,filler,4,
5954,Experiment Group,safe,0,0,0,1,581,1014,33,filler,5,
5954,Experiment Group,Housing,0,0,0,0,512,94,34,critical,0,
5954,Experiment Group,only,0,0,0,0,554,94,34,critical,1,
5954,Experiment Group,new,0,0,0,0,418,94,34,critical,2,
5954,Experiment Group,students,0,0,0,0,563,94,34,critical,3,
5954,Experiment Group,that,0,0,0,0,471,94,34,critical,4,
