workerid,proliferate.condition,form,lbr_after,lbr_before,region,response_correct,rt,trial_id,trial_no,type,word_idx,error
5902,Experiment Group,The,0,0,0,1,489,1007,0,filler,0,
5902,Experiment Group,librarian,0,0,critical,1,703,1007,0,filler,1,
5902,Experiment Group,shelved,0,0,spillover_1,1,776,1007,0,filler,2,
5902,Experiment Group,the,0,0,spillover_2,1,481,1007,0,filler,3,
5902,Experiment Group,heavy,0,0,0,1,528,1007,0,filler,4,
5902,Experiment Group,book,0,0,0,1,645,1007,0,filler,5,
5902,Experiment Group,Totaling,0,0,0,1,970,83,1,critical,0,
5902,Experiment Group,eight,0,0,0,1,894,83,1,critical,1,
5902,Experiment Group,"athletes,",0,0,0,1,641,83,1,critical,2,
5902,Experiment Group,the,0,0,0,1,970,83,1,critical,3,
5902,Experiment Group,dedicated,0,0,0,1,749,83,1,critical,4,
5902,Experiment Group,team,0,0,critical,1,521,83,1,critical,5,
5902,Experiment Group,will,0,0,spillover_1,1,508,83,1,critical,6,
5902,Experiment Group,be,0,0,spillover_2,1,426,83,1,critical,7,
5902,Experiment Group,managed,0,0,0,1,790,83,1,critical,8,
5902,Experiment Group,by,0,0,0,1,397,83,1,critical,9,
5902,Experiment Group,the,0,0,0,1,386,83,1,critical,10,
5902,Experiment Group,coach,0,0,0,1,592,83,1,critical,11,
5902,Experiment Group,Composed,0,0,0,1,972,33,2,critical,0,
5902,Experiment Group,of,0,0,0,1,391,33,2,critical,1,
5902,Experiment Group,ice,0,0,0,1,407,33,2,critical,2,
5902,Experiment Group,cream,0,0,0,1,496,33,2,critical,3,
5902,Experiment Group,and,0,0,0,1,446,33,2,critical,4,
5902,Experiment Group,"meringue,",0,0,0,1,1097,33,2,critical,5,
5902,Experiment Group,the,0,0,0,1,448,33,2,critical,6,
5902,Experiment Group,baked,0,0,0,1,492,33,2,critical,7,
5902,Experiment Group,Alaska,0,0,critical,1,638,33,2,critical,8,
5902,Experiment Group,will,0,0,spillover_1,1,1211,33,2,critical,9,
5902,Experiment Group,be,0,0,spillover_2,1,1156,33,2,critical,10,
5902,Experiment Group,presented,0,0,0,1,408,33,2,critical,11,
5902,Experiment Group,by,0,0,0,1,364,33,2,critical,12,
5902,Experiment Group,the,0,0,0,1,288,33,2,critical,13,
5902,Experiment Group,baker,0,0,0,1,1453,33,2,critical,14,
5902,Experiment Group,The,0,0,0,1,423,1004,3,filler,0,
5902,Experiment Group,monkey,0,0,critical,1,423,1004,3,filler,1,
5902,Experiment Group,ate,0,0,spillover_1,1,435,1004,3,filler,2,
5902,Experiment Group,the,0,0,spillover_2,1,394,1004,3,filler,3,
5902,Experiment Group,ripe,0,0,0,1,496,1004,3,filler,4,
5902,Experiment Group,banana,0,0,0,1,452,1004,3,filler,5,
5902,Experiment Group,Built,0,0,0,1,641,72,4,critical,0,
5902,Experiment Group,from,0,0,0,1,407,72,4,critical,1,
5902,Experiment Group,the,0,0,0,1,360,72,4,critical,2,
5902,Experiment Group,ruins,0,0,0,1,480,72,4,critical,3,
5902,Experiment Group,of,0,0,0,1,416,72,4,critical,4,
5902,Experiment Group,the,0,0,0,1,354,72,4,critical,5,
5902,Experiment Group,town,0,0,0,1,542,72,4,critical,6,
5902,Experiment Group,hall,0,0,0,1,577,72,4,critical,7,
5902,Experiment Group,that,0,0,0,1,500,72,4,critical,8,
5902,Experiment Group,he,0,0,0,1,527,72,4,critical,9,
5902,Experiment Group,demolished,0,0,0,1,667,72,4,critical,10,
5902,Experiment Group,last,0,0,0,1,450,72,4,critical,11,
5902,Experiment Group,"year,",0,0,0,1,398,72,4,critical,12,
5902,Experiment Group,the,0,0,0,1,372,72,4,critical,13,
5902,Experiment Group,salesman,0,0,critical,1,645,72,4,critical,14,
5902,Experiment Group,will,0,0,spillover_1,1,441,72,4,critical,15,
5902,Experiment Group,market,0,0,spillover_2,1,421,72,4,critical,16,
5902,Experiment Group,the,0,0,0,1,522,72,4,critical,17,
5902,Experiment Group,new,0,0,0,1,479,72,4,critical,18,
5902,Experiment Group,skyscraper,0,0,0,1,722,72,4,critical,19,
5902,Experiment Group,The,0,0,0,1,383,1014,5,filler,0,
5902,Experiment Group,secret,0,0,critical,1,473,1014,5,filler,1,
5902,Experiment Group,protects,0,0,spillover_1,1,1038,1014,5,filler,2,
5902,Experiment Group,lock,0,0,spillover_2,1,384,1014,5,filler,3,
5902,Experiment Group,the,0,0,0,1,892,1014,5,filler,4,
5902,Experiment Group,safe,0,0,0,1,539,1014,5,filler,5,
5902,Experiment Group,The,0,0,0,1,378,1003,6,filler,0,
5902,Experiment Group,woman,0,0,critical,1,513,1003,6,filler,1,
5902,Experiment Group,washed,0,0,spillover_1,1,400,1003,6,filler,2,
5902,Experiment Group,the,0,0,spillover_2,1,399,1003,6,filler,3,
5902,Experiment Group,dirty,0,0,0,1,417,1003,6,filler,4,
5902,Experiment Group,dishes,0,0,0,1,548,1003,6,filler,5,
5902,Experiment Group,The,0,0,0,1,412,1020,7,filler,0,
5902,Experiment Group,valuable,0,0,critical,1,796,1020,7,filler,1,
5902,Experiment Group,the,0,0,spillover_1,1,808,1020,7,filler,2,
5902,Experiment Group,shelf,0,0,spillover_2,1,517,1020,7,filler,3,
5902,Experiment Group,jewelry,0,0,0,1,831,1020,7,filler,4,
5902,Experiment Group,stores,0,0,0,1,491,1020,7,filler,5,
5902,Experiment Group,The,0,0,0,1,357,1023,8,filler,0,
5902,Experiment Group,acclaimed,0,0,critical,1,731,1023,8,filler,1,
5902,Experiment Group,honors,0,0,spillover_1,1,1409,1023,8,filler,2,
5902,Experiment Group,artists,0,0,spillover_2,1,520,1023,8,filler,3,
5902,Experiment Group,gala,0,0,0,1,581,1023,8,filler,4,
5902,Experiment Group,the,0,0,0,1,565,1023,8,filler,5,
5902,Experiment Group,The,0,0,0,1,358,1018,9,filler,0,
5902,Experiment Group,dangerous,0,0,critical,1,450,1018,9,filler,1,
5902,Experiment Group,mixes,0,0,spillover_1,1,403,1018,9,filler,2,
5902,Experiment Group,chemicals,0,0,spillover_2,1,1027,1018,9,filler,3,
5902,Experiment Group,scientist,0,0,0,1,649,1018,9,filler,4,
5902,Experiment Group,the,0,0,0,1,369,1018,9,filler,5,
5902,Experiment Group,Derived,0,0,0,1,958,43,10,critical,0,
5902,Experiment Group,from,0,0,0,1,356,43,10,critical,1,
5902,Experiment Group,ancient,0,0,0,1,471,43,10,critical,2,
5902,Experiment Group,Greek,0,0,0,1,484,43,10,critical,3,
5902,Experiment Group,"texts,",0,0,0,1,1373,43,10,critical,4,
5902,Experiment Group,the,0,0,0,1,374,43,10,critical,5,
5902,Experiment Group,tome,0,0,critical,1,444,43,10,critical,6,
5902,Experiment Group,will,0,0,spillover_1,1,337,43,10,critical,7,
5902,Experiment Group,be,0,0,spillover_2,1,353,43,10,critical,8,
5902,Experiment Group,studied,0,0,0,1,1402,43,10,critical,9,
5902,Experiment Group,carefully,0,0,0,1,444,43,10,critical,10,
5902,Experiment Group,by,0,0,0,1,317,43,10,critical,11,
5902,Experiment Group,the,0,0,0,1,336,43,10,critical,12,
5902,Experiment Group,student,0,0,0,1,589,43,10,critical,13,
5902,Experiment Group,The,0,0,0,0,395,1015,11,filler,0,
5902,Experiment Group,wet,0,0,critical,0,648,1015,11,filler,1,
5902,Experiment Group,heats,0,0,spillover_1,0,1151,1015,11,filler,2,
5902,Experiment Group,dryer,0,0,spillover_2,0,1619,1015,11,filler,3,
5902,Experiment Group,the,0,0,0,0,395,1015,11,filler,4,
5902,Experiment Group,clothes,0,0,0,0,433,1015,11,filler,5,
5902,Experiment Group,Featuring,0,0,0,1,449,124,12,critical,0,
5902,Experiment Group,the,0,0,0,1,337,124,12,critical,1,
5902,Experiment Group,brick,0,0,0,1,418,124,12,critical,2,
5902,Experiment Group,oven,0,0,0,1,527,124,12,critical,3,
5902,Experiment Group,that,0,0,0,1,843,124,12,critical,4,
5902,Experiment Group,he,0,0,0,1,842,124,12,critical,5,
5902,Experiment Group,installed,0,0,0,1,531,124,12,critical,6,
5902,Experiment Group,last,0,0,0,1,463,124,12,critical,7,
5902,Experiment Group,"week,",0,0,0,1,392,124,12,critical,8,
5902,Experiment Group,the,0,0,0,1,513,124,12,critical,9,
5902,Experiment Group,kitchen,0,0,0,1,445,124,12,critical,10,
5902,Experiment Group,will,0,0,0,1,416,124,12,critical,11,
5902,Experiment Group,be,0,0,0,1,334,124,12,critical,12,
5902,Experiment Group,monitored,0,0,0,1,891,124,12,critical,13,
5902,Experiment Group,by,0,0,0,1,396,124,12,critical,14,
5902,Experiment Group,the,0,0,0,1,384,124,12,critical,15,
5902,Experiment Group,chef,0,0,critical,1,418,124,12,critical,16,
5902,Experiment Group,The,0,0,0,1,379,1024,13,filler,0,
5902,Experiment Group,blank,0,0,critical,1,436,1024,13,filler,1,
5902,Experiment Group,the,0,0,spillover_1,1,480,1024,13,filler,2,
5902,Experiment Group,painter,0,0,spillover_2,1,473,1024,13,filler,3,
5902,Experiment Group,canvas,0,0,0,1,706,1024,13,filler,4,
5902,Experiment Group,admires,0,0,0,1,446,1024,13,filler,5,
5902,Experiment Group,The,0,0,0,1,355,1011,14,filler,0,
5902,Experiment Group,hammer,0,0,critical,1,1163,1011,14,filler,1,
5902,Experiment Group,smashed,0,0,spillover_1,1,1335,1011,14,filler,2,
5902,Experiment Group,the,0,0,spillover_2,1,417,1011,14,filler,3,
5902,Experiment Group,fragile,0,0,0,1,540,1011,14,filler,4,
5902,Experiment Group,glass,0,0,0,1,597,1011,14,filler,5,
5902,Experiment Group,The,0,0,0,1,339,1013,15,filler,0,
5902,Experiment Group,messy,0,0,critical,1,464,1013,15,filler,1,
5902,Experiment Group,cleans,0,0,spillover_1,1,751,1013,15,filler,2,
5902,Experiment Group,student,0,0,spillover_2,1,595,1013,15,filler,3,
5902,Experiment Group,room,0,0,0,1,460,1013,15,filler,4,
5902,Experiment Group,the,0,0,0,1,504,1013,15,filler,5,
5902,Experiment Group,Comprising,0,0,0,1,359,104,16,critical,0,
5902,Experiment Group,six,0,0,0,1,624,104,16,critical,1,
5902,Experiment Group,difficult,0,0,0,1,401,104,16,critical,2,
5902,Experiment Group,classes,0,0,0,1,1403,104,16,critical,3,
5902,Experiment Group,that,0,0,0,1,524,104,16,critical,4,
5902,Experiment Group,she,0,0,0,1,403,104,16,critical,5,
5902,Experiment Group,designed,0,0,0,1,463,104,16,critical,6,
5902,Experiment Group,"herself,",0,0,0,1,952,104,16,critical,7,
5902,Experiment Group,the,0,0,0,1,924,104,16,critical,8,
5902,Experiment Group,teacher,0,0,0,1,495,104,16,critical,9,
5902,Experiment Group,will,0,0,0,1,347,104,16,critical,10,
5902,Experiment Group,manage,0,0,0,1,674,104,16,critical,11,
5902,Experiment Group,her,0,0,0,1,453,104,16,critical,12,
5902,Experiment Group,busy,0,0,0,1,476,104,16,critical,13,
5902,Experiment Group,schedule,0,0,critical,1,615,104,16,critical,14,
5902,Experiment Group,The,0,0,0,1,465,1016,17,filler,0,
5902,Experiment Group,sore,0,0,critical,1,581,1016,17,filler,1,
5902,Experiment Group,the,0,0,spillover_1,1,525,1016,17,filler,2,
5902,Experiment Group,athlete,0,0,spillover_2,1,489,1016,17,filler,3,
5902,Experiment Group,massages,0,0,0,1,803,1016,17,filler,4,
5902,Experiment Group,muscles,0,0,0,1,553,1016,17,filler,5,
5902,Experiment Group,The,0,0,0,1,354,1017,18,filler,0,
5902,Experiment Group,steady,0,0,critical,1,420,1017,18,filler,1,
5902,Experiment Group,the,0,0,spillover_1,1,530,1017,18,filler,2,
5902,Experiment Group,sails,0,0,spillover_2,1,495,1017,18,filler,3,
5902,Experiment Group,captain,0,0,0,1,528,1017,18,filler,4,
5902,Experiment Group,ship,0,0,0,1,388,1017,18,filler,5,
5902,Experiment Group,The,0,0,0,1,378,1005,19,filler,0,
5902,Experiment Group,wrecking,0,0,critical,1,489,1005,19,filler,1,
5902,Experiment Group,ball,0,0,spillover_1,1,405,1005,19,filler,2,
5902,Experiment Group,demolished,0,0,spillover_2,1,456,1005,19,filler,3,
5902,Experiment Group,the,0,0,0,1,415,1005,19,filler,4,
5902,Experiment Group,decrepit,0,0,0,1,681,1005,19,filler,5,
5902,Experiment Group,building,0,0,0,1,464,1005,19,filler,6,
5902,Experiment Group,The,0,0,0,1,354,1010,20,filler,0,
5902,Experiment Group,editor,0,0,critical,1,553,1010,20,filler,1,
5902,Experiment Group,mentored,0,0,spillover_1,1,1593,1010,20,filler,2,
5902,Experiment Group,the,0,0,spillover_2,1,478,1010,20,filler,3,
5902,Experiment Group,stressed,0,0,0,1,492,1010,20,filler,4,
5902,Experiment Group,writer,0,0,0,1,596,1010,20,filler,5,
5902,Experiment Group,The,0,0,0,1,357,1021,21,filler,0,
5902,Experiment Group,broken,0,0,critical,1,461,1021,21,filler,1,
5902,Experiment Group,fixes,0,0,spillover_1,1,833,1021,21,filler,2,
5902,Experiment Group,truck,0,0,spillover_2,1,467,1021,21,filler,3,
5902,Experiment Group,engineer,0,0,0,1,614,1021,21,filler,4,
5902,Experiment Group,the,0,0,0,1,783,1021,21,filler,5,
5902,Experiment Group,The,0,0,0,1,327,1001,22,filler,0,
5902,Experiment Group,gopher,0,0,critical,1,544,1001,22,filler,1,
5902,Experiment Group,chased,0,0,spillover_1,1,481,1001,22,filler,2,
5902,Experiment Group,the,0,0,spillover_2,1,310,1001,22,filler,3,
5902,Experiment Group,fearful,0,0,0,1,441,1001,22,filler,4,
5902,Experiment Group,rabbit,0,0,0,1,506,1001,22,filler,5,
5902,Experiment Group,The,0,0,0,1,311,1019,23,filler,0,
5902,Experiment Group,difficult,0,0,critical,1,489,1019,23,filler,1,
5902,Experiment Group,grades,0,0,spillover_1,1,531,1019,23,filler,2,
5902,Experiment Group,exam,0,0,spillover_2,1,529,1019,23,filler,3,
5902,Experiment Group,assistant,0,0,0,1,998,1019,23,filler,4,
5902,Experiment Group,the,0,0,0,1,390,1019,23,filler,5,
5902,Experiment Group,teaching,0,0,0,1,404,1019,23,filler,6,
5902,Experiment Group,The,0,0,0,1,297,1006,24,filler,0,
5902,Experiment Group,horse,0,0,critical,1,361,1006,24,filler,1,
5902,Experiment Group,chewed,0,0,spillover_1,1,1069,1006,24,filler,2,
5902,Experiment Group,the,0,0,spillover_2,1,374,1006,24,filler,3,
5902,Experiment Group,sweet,0,0,0,1,1324,1006,24,filler,4,
5902,Experiment Group,apple,0,0,0,1,536,1006,24,filler,5,
5902,Experiment Group,Containing,0,0,0,1,689,24,25,critical,0,
5902,Experiment Group,all,0,0,0,1,326,24,25,critical,1,
5902,Experiment Group,the,0,0,0,1,367,24,25,critical,2,
5902,Experiment Group,marbles,0,0,0,1,409,24,25,critical,3,
5902,Experiment Group,that,0,0,0,1,430,24,25,critical,4,
5902,Experiment Group,she,0,0,0,1,386,24,25,critical,5,
5902,Experiment Group,"bought,",0,0,0,1,395,24,25,critical,6,
5902,Experiment Group,the,0,0,0,1,435,24,25,critical,7,
5902,Experiment Group,jar,0,0,critical,1,383,24,25,critical,8,
5902,Experiment Group,will,0,0,spillover_1,1,361,24,25,critical,9,
5902,Experiment Group,be,0,0,spillover_2,1,327,24,25,critical,10,
5902,Experiment Group,violently,0,0,0,1,906,24,25,critical,11,
5902,Experiment Group,shaken,0,0,0,1,432,24,25,critical,12,
5902,Experiment Group,by,0,0,0,1,404,24,25,critical,13,
5902,Experiment Group,the,0,0,0,1,327,24,25,critical,14,
5902,Experiment Group,girl,0,0,0,1,401,24,25,critical,15,
5902,Experiment Group,Consisting,0,0,0,1,492,12,26,critical,0,
5902,Experiment Group,of,0,0,0,1,334,12,26,critical,1,
5902,Experiment Group,ten,0,0,0,1,270,12,26,critical,2,
5902,Experiment Group,passages,0,0,0,1,530,12,26,critical,3,
5902,Experiment Group,that,0,0,0,1,493,12,26,critical,4,
5902,Experiment Group,she,0,0,0,1,373,12,26,critical,5,
5902,Experiment Group,"wrote,",0,0,0,1,406,12,26,critical,6,
5902,Experiment Group,the,0,0,0,1,334,12,26,critical,7,
5902,Experiment Group,author,0,0,critical,1,407,12,26,critical,8,
5902,Experiment Group,will,0,0,spillover_1,1,395,12,26,critical,9,
5902,Experiment Group,publish,0,0,spillover_2,1,372,12,26,critical,10,
5902,Experiment Group,a,0,0,0,1,363,12,26,critical,11,
5902,Experiment Group,new,0,0,0,1,371,12,26,critical,12,
5902,Experiment Group,book,0,0,0,1,1335,12,26,critical,13,
5902,Experiment Group,The,0,0,0,1,373,1012,27,filler,0,
5902,Experiment Group,basket,0,0,critical,1,413,1012,27,filler,1,
5902,Experiment Group,held,0,0,spillover_1,1,600,1012,27,filler,2,
5902,Experiment Group,the,0,0,spillover_2,1,406,1012,27,filler,3,
5902,Experiment Group,expensive,0,0,0,1,494,1012,27,filler,4,
5902,Experiment Group,cheeses,0,0,0,1,759,1012,27,filler,5,
5902,Experiment Group,Spanning,0,0,0,1,600,112,28,critical,0,
5902,Experiment Group,the,0,0,0,1,346,112,28,critical,1,
5902,Experiment Group,peaceful,0,0,0,1,401,112,28,critical,2,
5902,Experiment Group,countryside,0,0,0,1,754,112,28,critical,3,
5902,Experiment Group,that,0,0,0,1,467,112,28,critical,4,
5902,Experiment Group,she,0,0,0,1,329,112,28,critical,5,
5902,Experiment Group,grew,0,0,0,1,433,112,28,critical,6,
5902,Experiment Group,up,0,0,0,1,372,112,28,critical,7,
5902,Experiment Group,"in,",0,0,0,1,338,112,28,critical,8,
5902,Experiment Group,the,0,0,0,1,471,112,28,critical,9,
5902,Experiment Group,queen,0,0,critical,1,442,112,28,critical,10,
5902,Experiment Group,will,0,0,spillover_1,1,464,112,28,critical,11,
5902,Experiment Group,rule,0,0,spillover_2,1,1057,112,28,critical,12,
5902,Experiment Group,the,0,0,0,1,420,112,28,critical,13,
5902,Experiment Group,mountain,0,0,0,1,635,112,28,critical,14,
5902,Experiment Group,territories,0,0,0,1,468,112,28,critical,15,
5902,Experiment Group,The,0,0,0,1,365,1008,29,filler,0,
5902,Experiment Group,child,0,0,critical,1,556,1008,29,filler,1,
5902,Experiment Group,played,0,0,spillover_1,1,683,1008,29,filler,2,
5902,Experiment Group,the,0,0,spillover_2,1,358,1008,29,filler,3,
5902,Experiment Group,loud,0,0,0,1,424,1008,29,filler,4,
5902,Experiment Group,drums,0,0,0,1,519,1008,29,filler,5,
5902,Experiment Group,Running,0,0,0,1,396,54,30,critical,0,
5902,Experiment Group,on,0,0,0,1,334,54,30,critical,1,
5902,Experiment Group,clean,0,0,0,1,350,54,30,critical,2,
5902,Experiment Group,energy,0,0,0,1,456,54,30,critical,3,
5902,Experiment Group,that,0,0,0,1,536,54,30,critical,4,
5902,Experiment Group,he,0,0,0,1,376,54,30,critical,5,
5902,Experiment Group,harvested,0,0,0,1,513,54,30,critical,6,
5902,Experiment Group,from,0,0,0,1,483,54,30,critical,7,
5902,Experiment Group,solar,0,0,0,1,452,54,30,critical,8,
5902,Experiment Group,"panels,",0,0,0,1,495,54,30,critical,9,
5902,Experiment Group,the,0,0,0,1,869,54,30,critical,10,
5902,Experiment Group,car,0,0,critical,1,416,54,30,critical,11,
5902,Experiment Group,will,0,0,spillover_1,1,363,54,30,critical,12,
5902,Experiment Group,be,0,0,spillover_2,1,296,54,30,critical,13,
5902,Experiment Group,loved,0,0,0,1,694,54,30,critical,14,
5902,Experiment Group,deeply,0,0,0,1,351,54,30,critical,15,
5902,Experiment Group,by,0,0,0,1,394,54,30,critical,16,
5902,Experiment Group,the,0,0,0,1,311,54,30,critical,17,
5902,Experiment Group,environmentalist,0,0,0,1,750,54,30,critical,18,
5902,Experiment Group,The,0,0,0,1,355,1009,31,filler,0,
5902,Experiment Group,knight,0,0,critical,1,493,1009,31,filler,1,
5902,Experiment Group,protected,0,0,spillover_1,1,470,1009,31,filler,2,
5902,Experiment Group,the,0,0,spillover_2,1,375,1009,31,filler,3,
5902,Experiment Group,guarded,0,0,0,1,511,1009,31,filler,4,
5902,Experiment Group,fortress,0,0,0,1,562,1009,31,filler,5,
5902,Experiment Group,Formed,0,0,0,1,645,61,32,critical,0,
5902,Experiment Group,from,0,0,0,1,397,61,32,critical,1,
5902,Experiment Group,slippery,0,0,0,1,430,61,32,critical,2,
5902,Experiment Group,red,0,0,0,1,427,61,32,critical,3,
5902,Experiment Group,"clay,",0,0,0,1,517,61,32,critical,4,
5902,Experiment Group,the,0,0,0,1,514,61,32,critical,5,
5902,Experiment Group,artist,0,0,critical,1,389,61,32,critical,6,
5902,Experiment Group,will,0,0,spillover_1,1,371,61,32,critical,7,
5902,Experiment Group,admire,0,0,spillover_2,1,337,61,32,critical,8,
5902,Experiment Group,the,0,0,0,1,430,61,32,critical,9,
5902,Experiment Group,handmade,0,0,0,1,485,61,32,critical,10,
5902,Experiment Group,flowerpot,0,0,0,1,1282,61,32,critical,11,
5902,Experiment Group,The,0,0,0,1,361,1022,33,filler,0,
5902,Experiment Group,dying,0,0,critical,1,470,1022,33,filler,1,
5902,Experiment Group,the,0,0,spillover_1,1,614,1022,33,filler,2,
5902,Experiment Group,cable,0,0,spillover_2,1,458,1022,33,filler,3,
5902,Experiment Group,computer,0,0,0,1,516,1022,33,filler,4,
5902,Experiment Group,charges,0,0,0,1,425,1022,33,filler,5,
5902,Experiment Group,Housing,0,0,0,1,419,94,34,critical,0,
5902,Experiment Group,only,0,0,0,1,385,94,34,critical,1,
5902,Experiment Group,international,0,0,0,1,1334,94,34,critical,2,
5902,Experiment Group,students,0,0,0,1,819,94,34,critical,3,
5902,Experiment Group,that,0,0,0,1,455,94,34,critical,4,
5902,Experiment Group,the,0,0,0,1,323,94,34,critical,5,
5902,Experiment Group,school,0,0,0,1,411,94,34,critical,6,
5902,Experiment Group,"accepted,",0,0,0,1,1407,94,34,critical,7,
5902,Experiment Group,the,0,0,0,1,381,94,34,critical,8,
5902,Experiment Group,new,0,0,0,1,402,94,34,critical,9,
5902,Experiment Group,dormitory,0,0,critical,1,603,94,34,critical,10,
5902,Experiment Group,will,0,0,spillover_1,1,429,94,34,critical,11,
5902,Experiment Group,be,0,0,spillover_2,1,358,94,34,critical,12,
5902,Experiment Group,occupied,0,0,0,1,492,94,34,critical,13,
5902,Experiment Group,by,0,0,0,1,361,94,34,critical,14,
5902,Experiment Group,the,0,0,0,1,369,94,34,critical,15,
5902,Experiment Group,girls,0,0,0,1,344,94,34,critical,16,
5902,Experiment Group,for,0,0,0,1,417,94,34,critical,17,
5902,Experiment Group,now,0,0,0,1,490,94,34,critical,18,
5902,Experiment Group,The,0,0,0,1,349,1002,35,filler,0,
5902,Experiment Group,professor,0,0,critical,1,461,1002,35,filler,1,
5902,Experiment Group,played,0,0,spillover_1,1,408,1002,35,filler,2,
5902,Experiment Group,the,0,0,spillover_2,1,362,1002,35,filler,3,
5902,Experiment Group,lovely,0,0,0,1,438,1002,35,filler,4,
5902,Experiment Group,violin,0,0,0,1,564,1002,35,filler,5,
5913,Experiment Group,The,0,0,0,1,802,1020,0,filler,0,
5913,Experiment Group,valuable,0,0,critical,1,2496,1020,0,filler,1,
5913,Experiment Group,the,0,0,spillover_1,1,1647,1020,0,filler,2,
5913,Experiment Group,shelf,0,0,spillover_2,1,1675,1020,0,filler,3,
5913,Experiment Group,jewelry,0,0,0,1,1728,1020,0,filler,4,
5913,Experiment Group,stores,0,0,0,1,1973,1020,0,filler,5,
5913,Experiment Group,The,0,0,0,1,1750,1007,1,filler,0,
5913,Experiment Group,librarian,0,0,critical,1,1991,1007,1,filler,1,
5913,Experiment Group,shelved,0,0,spillover_1,1,2248,1007,1,filler,2,
5913,Experiment Group,the,0,0,spillover_2,1,1950,1007,1,filler,3,
5913,Experiment Group,heavy,0,0,0,1,1995,1007,1,filler,4,
5913,Experiment Group,book,0,0,0,1,1360,1007,1,filler,5,
5913,Experiment Group,Featuring,0,0,0,1,2432,122,2,critical,0,
5913,Experiment Group,the,0,0,0,1,1878,122,2,critical,1,
5913,Experiment Group,brick,0,0,0,1,1779,122,2,critical,2,
5913,Experiment Group,oven,0,0,0,1,1905,122,2,critical,3,
5913,Experiment Group,that,0,0,0,1,2016,122,2,critical,4,
5913,Experiment Group,he,0,0,0,1,1705,122,2,critical,5,
5913,Experiment Group,installed,0,0,0,1,2207,122,2,critical,6,
5913,Experiment Group,last,0,0,0,1,1623,122,2,critical,7,
5913,Experiment Group,"week,",0,0,0,1,1571,122,2,critical,8,
5913,Experiment Group,the,0,0,0,1,2125,122,2,critical,9,
5913,Experiment Group,chef,0,0,critical,1,1563,122,2,critical,10,
5913,Experiment Group,will,0,0,spillover_1,1,1276,122,2,critical,11,
5913,Experiment Group,monitor,0,0,spillover_2,1,1749,122,2,critical,12,
5913,Experiment Group,the,0,0,0,1,1572,122,2,critical,13,
5913,Experiment Group,kitchen,0,0,0,1,1380,122,2,critical,14,
5913,Experiment Group,The,0,0,0,1,1725,1005,3,filler,0,
5913,Experiment Group,wrecking,0,0,critical,1,1647,1005,3,filler,1,
5913,Experiment Group,ball,0,0,spillover_1,1,1250,1005,3,filler,2,
5913,Experiment Group,demolished,0,0,spillover_2,1,1810,1005,3,filler,3,
5913,Experiment Group,the,0,0,0,1,1511,1005,3,filler,4,
5913,Experiment Group,decrepit,0,0,0,1,1997,1005,3,filler,5,
5913,Experiment Group,building,0,0,0,1,1522,1005,3,filler,6,
5913,Experiment Group,The,0,0,0,1,1537,1013,4,filler,0,
5913,Experiment Group,messy,0,0,critical,1,2133,1013,4,filler,1,
5913,Experiment Group,cleans,0,0,spillover_1,1,1744,1013,4,filler,2,
5913,Experiment Group,student,0,0,spillover_2,1,2501,1013,4,filler,3,
5913,Experiment Group,room,0,0,0,1,1654,1013,4,filler,4,
5913,Experiment Group,the,0,0,0,1,1586,1013,4,filler,5,
5913,Experiment Group,The,0,0,0,1,1553,1011,5,filler,0,
5913,Experiment Group,hammer,0,0,critical,1,2129,1011,5,filler,1,
5913,Experiment Group,smashed,0,0,spillover_1,1,1927,1011,5,filler,2,
5913,Experiment Group,the,0,0,spillover_2,1,1516,1011,5,filler,3,
5913,Experiment Group,fragile,0,0,0,1,1498,1011,5,filler,4,
5913,Experiment Group,glass,0,0,0,1,1402,1011,5,filler,5,
5913,Experiment Group,The,0,0,0,1,1493,1018,6,filler,0,
5913,Experiment Group,dangerous,0,0,critical,1,1704,1018,6,filler,1,
5913,Experiment Group,mixes,0,0,spillover_1,1,1720,1018,6,filler,2,
5913,Experiment Group,chemicals,0,0,spillover_2,1,1635,1018,6,filler,3,
5913,Experiment Group,scientist,0,0,0,1,1898,1018,6,filler,4,
5913,Experiment Group,the,0,0,0,1,957,1018,6,filler,5,
5913,Experiment Group,Derived,0,0,0,1,1902,43,7,critical,0,
5913,Experiment Group,from,0,0,0,1,1719,43,7,critical,1,
5913,Experiment Group,ancient,0,0,0,1,2331,43,7,critical,2,
5913,Experiment Group,Greek,0,0,0,1,1998,43,7,critical,3,
5913,Experiment Group,"texts,",0,0,0,1,1711,43,7,critical,4,
5913,Experiment Group,the,0,0,0,1,1745,43,7,critical,5,
5913,Experiment Group,tome,0,0,critical,1,1969,43,7,critical,6,
5913,Experiment Group,will,0,0,spillover_1,1,1614,43,7,critical,7,
5913,Experiment Group,be,0,0,spillover_2,1,1651,43,7,critical,8,
5913,Experiment Group,studied,0,0,0,1,1342,43,7,critical,9,
5913,Experiment Group,carefully,0,0,0,1,1274,43,7,critical,10,
5913,Experiment Group,by,0,0,0,1,1106,43,7,critical,11,
5913,Experiment Group,the,0,0,0,1,1202,43,7,critical,12,
5913,Experiment Group,student,0,0,0,1,1246,43,7,critical,13,
5913,Experiment Group,The,0,0,0,1,2135,1002,8,filler,0,
5913,Experiment Group,professor,0,0,critical,1,1432,1002,8,filler,1,
5913,Experiment Group,played,0,0,spillover_1,1,1655,1002,8,filler,2,
5913,Experiment Group,the,0,0,spillover_2,1,1745,1002,8,filler,3,
5913,Experiment Group,lovely,0,0,0,1,1489,1002,8,filler,4,
5913,Experiment Group,violin,0,0,0,1,1289,1002,8,filler,5,
5913,Experiment Group,The,0,0,0,1,1899,1006,9,filler,0,
5913,Experiment Group,horse,0,0,critical,1,2749,1006,9,filler,1,
5913,Experiment Group,chewed,0,0,spillover_1,1,1675,1006,9,filler,2,
5913,Experiment Group,the,0,0,spillover_2,1,1361,1006,9,filler,3,
5913,Experiment Group,sweet,0,0,0,1,1378,1006,9,filler,4,
5913,Experiment Group,apple,0,0,0,1,1312,1006,9,filler,5,
5913,Experiment Group,The,0,0,0,1,1679,1003,10,filler,0,
5913,Experiment Group,woman,0,0,critical,1,1352,1003,10,filler,1,
5913,Experiment Group,washed,0,0,spillover_1,1,1808,1003,10,filler,2,
5913,Experiment Group,the,0,0,spillover_2,1,2098,1003,10,filler,3,
5913,Experiment Group,dirty,0,0,0,1,1733,1003,10,filler,4,
5913,Experiment Group,dishes,0,0,0,1,1190,1003,10,filler,5,
5913,Experiment Group,The,0,0,0,1,1743,1022,11,filler,0,
5913,Experiment Group,dying,0,0,critical,1,1742,1022,11,filler,1,
5913,Experiment Group,the,0,0,spillover_1,1,1490,1022,11,filler,2,
5913,Experiment Group,cable,0,0,spillover_2,1,1770,1022,11,filler,3,
5913,Experiment Group,computer,0,0,0,1,1975,1022,11,filler,4,
5913,Experiment Group,charges,0,0,0,1,1647,1022,11,filler,5,
5913,Experiment Group,The,0,0,0,1,5555,1004,12,filler,0,
5913,Experiment Group,monkey,0,0,critical,1,1234,1004,12,filler,1,
5913,Experiment Group,ate,0,0,spillover_1,1,1020,1004,12,filler,2,
5913,Experiment Group,the,0,0,spillover_2,1,1230,1004,12,filler,3,
5913,Experiment Group,ripe,0,0,0,1,1318,1004,12,filler,4,
5913,Experiment Group,banana,0,0,0,1,1158,1004,12,filler,5,
5913,Experiment Group,Housing,0,0,0,1,1622,91,13,critical,0,
5913,Experiment Group,only,0,0,0,1,1667,91,13,critical,1,
5913,Experiment Group,international,0,0,0,1,1936,91,13,critical,2,
5913,Experiment Group,"students,",0,0,0,1,2770,91,13,critical,3,
5913,Experiment Group,the,0,0,0,1,1141,91,13,critical,4,
5913,Experiment Group,girls,0,0,critical,1,1552,91,13,critical,5,
5913,Experiment Group,will,0,0,spillover_1,1,1231,91,13,critical,6,
5913,Experiment Group,occupy,0,0,spillover_2,1,1468,91,13,critical,7,
5913,Experiment Group,the,0,0,0,1,1614,91,13,critical,8,
5913,Experiment Group,new,0,0,0,1,1376,91,13,critical,9,
5913,Experiment Group,dormitory,0,0,0,1,1656,91,13,critical,10,
5913,Experiment Group,for,0,0,0,1,1145,91,13,critical,11,
5913,Experiment Group,now,0,0,0,1,988,91,13,critical,12,
5913,Experiment Group,Running,0,0,0,1,2249,53,14,critical,0,
5913,Experiment Group,on,0,0,0,1,1838,53,14,critical,1,
5913,Experiment Group,clean,0,0,0,1,1619,53,14,critical,2,
5913,Experiment Group,"energy,",0,0,0,1,2219,53,14,critical,3,
5913,Experiment Group,the,0,0,0,1,1535,53,14,critical,4,
5913,Experiment Group,car,0,0,critical,1,1594,53,14,critical,5,
5913,Experiment Group,will,0,0,spillover_1,1,1290,53,14,critical,6,
5913,Experiment Group,be,0,0,spillover_2,1,1293,53,14,critical,7,
5913,Experiment Group,loved,0,0,0,1,1432,53,14,critical,8,
5913,Experiment Group,deeply,0,0,0,1,1545,53,14,critical,9,
5913,Experiment Group,by,0,0,0,1,1095,53,14,critical,10,
5913,Experiment Group,the,0,0,0,1,1367,53,14,critical,11,
5913,Experiment Group,environmentalist,0,0,0,1,2023,53,14,critical,12,
5913,Experiment Group,Formed,0,0,0,1,1591,63,15,critical,0,
5913,Experiment Group,from,0,0,0,1,1286,63,15,critical,1,
5913,Experiment Group,slippery,0,0,0,1,1426,63,15,critical,2,
5913,Experiment Group,red,0,0,0,1,1650,63,15,critical,3,
5913,Experiment Group,"clay,",0,0,0,1,2943,63,15,critical,4,
5913,Experiment Group,the,0,0,0,1,1074,63,15,critical,5,
5913,Experiment Group,handmade,0,0,0,1,1513,63,15,critical,6,
5913,Experiment Group,flowerpot,0,0,critical,1,1952,63,15,critical,7,
5913,Experiment Group,will,0,0,spillover_1,1,1317,63,15,critical,8,
5913,Experiment Group,be,0,0,spillover_2,1,1504,63,15,critical,9,
5913,Experiment Group,admired,0,0,0,1,1317,63,15,critical,10,
5913,Experiment Group,by,0,0,0,1,918,63,15,critical,11,
5913,Experiment Group,the,0,0,0,1,695,63,15,critical,12,
5913,Experiment Group,artist,0,0,0,1,1985,63,15,critical,13,
5913,Experiment Group,The,0,0,0,1,1298,1001,16,filler,0,
5913,Experiment Group,gopher,0,0,critical,1,1536,1001,16,filler,1,
5913,Experiment Group,chased,0,0,spillover_1,1,1415,1001,16,filler,2,
5913,Experiment Group,the,0,0,spillover_2,1,1355,1001,16,filler,3,
5913,Experiment Group,fearful,0,0,0,1,1135,1001,16,filler,4,
5913,Experiment Group,rabbit,0,0,0,1,1431,1001,16,filler,5,
5913,Experiment Group,Built,0,0,0,1,2428,74,17,critical,0,
5913,Experiment Group,from,0,0,0,1,1157,74,17,critical,1,
5913,Experiment Group,the,0,0,0,1,1279,74,17,critical,2,
5913,Experiment Group,ruins,0,0,0,1,1872,74,17,critical,3,
5913,Experiment Group,of,0,0,0,1,1258,74,17,critical,4,
5913,Experiment Group,the,0,0,0,1,1233,74,17,critical,5,
5913,Experiment Group,town,0,0,0,1,1742,74,17,critical,6,
5913,Experiment Group,hall,0,0,0,1,1867,74,17,critical,7,
5913,Experiment Group,that,0,0,0,1,1928,74,17,critical,8,
5913,Experiment Group,he,0,0,0,1,1291,74,17,critical,9,
5913,Experiment Group,demolished,0,0,0,1,1887,74,17,critical,10,
5913,Experiment Group,last,0,0,0,1,1646,74,17,critical,11,
5913,Experiment Group,"year,",0,0,0,1,1291,74,17,critical,12,
5913,Experiment Group,the,0,0,0,1,986,74,17,critical,13,
5913,Experiment Group,new,0,0,0,1,1148,74,17,critical,14,
5913,Experiment Group,skyscraper,0,0,critical,1,2142,74,17,critical,15,
5913,Experiment Group,will,0,0,spillover_1,1,1397,74,17,critical,16,
5913,Experiment Group,be,0,0,spillover_2,1,1205,74,17,critical,17,
5913,Experiment Group,marketed,0,0,0,1,1390,74,17,critical,18,
5913,Experiment Group,by,0,0,0,1,1100,74,17,critical,19,
5913,Experiment Group,the,0,0,0,1,1232,74,17,critical,20,
5913,Experiment Group,salesman,0,0,0,1,1161,74,17,critical,21,
5913,Experiment Group,The,0,0,0,1,1031,1008,18,filler,0,
5913,Experiment Group,child,0,0,critical,1,1067,1008,18,filler,1,
5913,Experiment Group,played,0,0,spillover_1,1,1268,1008,18,filler,2,
5913,Experiment Group,the,0,0,spillover_2,1,1023,1008,18,filler,3,
5913,Experiment Group,loud,0,0,0,1,974,1008,18,filler,4,
5913,Experiment Group,drums,0,0,0,1,1133,1008,18,filler,5,
5913,Experiment Group,The,0,0,0,0,1025,1019,19,filler,0,
5913,Experiment Group,difficult,0,0,critical,0,2042,1019,19,filler,1,
5913,Experiment Group,grades,0,0,spillover_1,0,1812,1019,19,filler,2,
5913,Experiment Group,exam,0,0,spillover_2,0,2177,1019,19,filler,3,
5913,Experiment Group,assistant,0,0,0,0,1595,1019,19,filler,4,
5913,Experiment Group,the,0,0,0,0,1306,1019,19,filler,5,
5913,Experiment Group,teaching,0,0,0,0,1129,1019,19,filler,6,
5913,Experiment Group,The,0,0,0,1,1103,1024,20,filler,0,
5913,Experiment Group,blank,0,0,critical,1,1648,1024,20,filler,1,
5913,Experiment Group,the,0,0,spillover_1,1,1742,1024,20,filler,2,
5913,Experiment Group,painter,0,0,spillover_2,1,1834,1024,20,filler,3,
5913,Experiment Group,canvas,0,0,0,1,1670,1024,20,filler,4,
5913,Experiment Group,admires,0,0,0,1,1450,1024,20,filler,5,
5913,Experiment Group,The,0,0,0,0,1426,1015,21,filler,0,
5913,Experiment Group,wet,0,0,critical,0,1284,1015,21,filler,1,
5913,Experiment Group,heats,0,0,spillover_1,0,1361,1015,21,filler,2,
5913,Experiment Group,dryer,0,0,spillover_2,0,1499,1015,21,filler,3,
5913,Experiment Group,the,0,0,0,0,1708,1015,21,filler,4,
5913,Experiment Group,clothes,0,0,0,0,909,1015,21,filler,5,
5913,Experiment Group,Consisting,0,0,0,1,3896,14,22,critical,0,
5913,Experiment Group,of,0,0,0,1,1397,14,22,critical,1,
5913,Experiment Group,ten,0,0,0,1,1533,14,22,critical,2,
5913,Experiment Group,passages,0,0,0,1,2084,14,22,critical,3,
5913,Experiment Group,that,0,0,0,1,1726,14,22,critical,4,
5913,Experiment Group,she,0,0,0,1,1578,14,22,critical,5,
5913,Experiment Group,"wrote,",0,0,0,1,1837,14,22,critical,6,
5913,Experiment Group,a,0,0,0,1,1139,14,22,critical,7,
5913,Experiment Group,new,0,0,0,1,1321,14,22,critical,8,
5913,Experiment Group,book,0,0,critical,1,1502,14,22,critical,9,
5913,Experiment Group,will,0,0,spillover_1,1,1533,14,22,critical,10,
5913,Experiment Group,be,0,0,spillover_2,1,1214,14,22,critical,11,
5913,Experiment Group,published,0,0,0,1,1193,14,22,critical,12,
5913,Experiment Group,by,0,0,0,1,1011,14,22,critical,13,
5913,Experiment Group,the,0,0,0,1,601,14,22,critical,14,
5913,Experiment Group,author,0,0,0,1,1011,14,22,critical,15,
5913,Experiment Group,Containing,0,0,0,1,1544,22,23,critical,0,
5913,Experiment Group,all,0,0,0,1,2840,22,23,critical,1,
5913,Experiment Group,the,0,0,0,1,1322,22,23,critical,2,
5913,Experiment Group,marbles,0,0,0,1,1340,22,23,critical,3,
5913,Experiment Group,that,0,0,0,1,1294,22,23,critical,4,
5913,Experiment Group,she,0,0,0,1,1255,22,23,critical,5,
5913,Experiment Group,"bought,",0,0,0,1,1530,22,23,critical,6,
5913,Experiment Group,the,0,0,0,1,1231,22,23,critical,7,
5913,Experiment Group,girl,0,0,critical,1,699,22,23,critical,8,
5913,Experiment Group,will,0,0,spillover_1,1,747,22,23,critical,9,
5913,Experiment Group,shake,0,0,spillover_2,1,743,22,23,critical,10,
5913,Experiment Group,the,0,0,0,1,917,22,23,critical,11,
5913,Experiment Group,jar,0,0,0,1,895,22,23,critical,12,
5913,Experiment Group,violently,0,0,0,1,2237,22,23,critical,13,
5913,Experiment Group,The,0,0,0,1,985,1021,24,filler,0,
5913,Experiment Group,broken,0,0,critical,1,1448,1021,24,filler,1,
5913,Experiment Group,fixes,0,0,spillover_1,1,1301,1021,24,filler,2,
5913,Experiment Group,truck,0,0,spillover_2,1,1315,1021,24,filler,3,
5913,Experiment Group,engineer,0,0,0,1,1175,1021,24,filler,4,
5913,Experiment Group,the,0,0,0,1,999,1021,24,filler,5,
5913,Experiment Group,The,0,0,0,1,921,1023,25,filler,0,
5913,Experiment Group,acclaimed,0,0,critical,1,1957,1023,25,filler,1,
5913,Experiment Group,honors,0,0,spillover_1,1,1420,1023,25,filler,2,
5913,Experiment Group,artists,0,0,spillover_2,1,1376,1023,25,filler,3,
5913,Experiment Group,gala,0,0,0,1,1120,1023,25,filler,4,
5913,Experiment Group,the,0,0,0,1,792,1023,25,filler,5,
5913,Experiment Group,The,0,0,0,1,1155,1016,26,filler,0,
5913,Experiment Group,sore,0,0,critical,1,1194,1016,26,filler,1,
5913,Experiment Group,the,0,0,spillover_1,1,1153,1016,26,filler,2,
5913,Experiment Group,athlete,0,0,spillover_2,1,1286,1016,26,filler,3,
5913,Experiment Group,massages,0,0,0,1,1227,1016,26,filler,4,
5913,Experiment Group,muscles,0,0,0,1,971,1016,26,filler,5,
5913,Experiment Group,The,0,0,0,1,1047,1009,27,filler,0,
5913,Experiment Group,knight,0,0,critical,1,1181,1009,27,filler,1,
5913,Experiment Group,protected,0,0,spillover_1,1,1154,1009,27,filler,2,
5913,Experiment Group,the,0,0,spillover_2,1,1391,1009,27,filler,3,
5913,Experiment Group,guarded,0,0,0,1,1417,1009,27,filler,4,
5913,Experiment Group,fortress,0,0,0,1,1063,1009,27,filler,5,
5913,Experiment Group,Comprising,0,0,0,1,2642,103,28,critical,0,
5913,Experiment Group,six,0,0,0,1,2390,103,28,critical,1,
5913,Experiment Group,difficult,0,0,0,1,1267,103,28,critical,2,
5913,Experiment Group,"classes,",0,0,0,1,1924,103,28,critical,3,
5913,Experiment Group,the,0,0,0,1,880,103,28,critical,4,
5913,Experiment Group,busy,0,0,0,1,1297,103,28,critical,5,
5913,Experiment Group,schedule,0,0,critical,1,1207,103,28,critical,6,
5913,Experiment Group,will,0,0,spillover_1,1,1087,103,28,critical,7,
5913,Experiment Group,be,0,0,spillover_2,1,567,103,28,critical,8,
5913,Experiment Group,managed,0,0,0,1,1073,103,28,critical,9,
5913,Experiment Group,by,0,0,0,1,838,103,28,critical,10,
5913,Experiment Group,the,0,0,0,1,832,103,28,critical,11,
5913,Experiment Group,teacher,0,0,0,1,987,103,28,critical,12,
5913,Experiment Group,The,0,0,0,1,1224,1017,29,filler,0,
5913,Experiment Group,steady,0,0,critical,1,1402,1017,29,filler,1,
5913,Experiment Group,the,0,0,spillover_1,1,1345,1017,29,filler,2,
5913,Experiment Group,sails,0,0,spillover_2,1,1791,1017,29,filler,3,
5913,Experiment Group,captain,0,0,0,1,1145,1017,29,filler,4,
5913,Experiment Group,ship,0,0,0,1,900,1017,29,filler,5,
5913,Experiment Group,Spanning,0,0,0,1,1680,113,30,critical,0,
5913,Experiment Group,the,0,0,0,1,1474,113,30,critical,1,
5913,Experiment Group,peaceful,0,0,0,1,1583,113,30,critical,2,
5913,Experiment Group,"countryside,",0,0,0,1,2263,113,30,critical,3,
5913,Experiment Group,the,0,0,0,1,1071,113,30,critical,4,
5913,Experiment Group,mountain,0,0,0,1,1503,113,30,critical,5,
5913,Experiment Group,territories,0,0,0,1,1617,113,30,critical,6,
5913,Experiment Group,will,0,0,0,1,1465,113,30,critical,7,
5913,Experiment Group,be,0,0,0,1,1332,113,30,critical,8,
5913,Experiment Group,ruled,0,0,0,1,974,113,30,critical,9,
5913,Experiment Group,by,0,0,0,1,643,113,30,critical,10,
5913,Experiment Group,the,0,0,0,1,755,113,30,critical,11,
5913,Experiment Group,queen,0,0,critical,1,764,113,30,critical,12,
5913,Experiment Group,The,0,0,0,1,1408,1014,31,filler,0,
5913,Experiment Group,secret,0,0,critical,1,1430,1014,31,filler,1,
5913,Experiment Group,protects,0,0,spillover_1,1,1686,1014,31,filler,2,
5913,Experiment Group,lock,0,0,spillover_2,1,1985,1014,31,filler,3,
5913,Experiment Group,the,0,0,0,1,1044,1014,31,filler,4,
5913,Experiment Group,safe,0,0,0,1,837,1014,31,filler,5,
5913,Experiment Group,Totaling,0,0,0,1,1909,83,32,critical,0,
5913,Experiment Group,eight,0,0,0,1,1338,83,32,critical,1,
5913,Experiment Group,"athletes,",0,0,0,1,1062,83,32,critical,2,
5913,Experiment Group,the,0,0,0,1,1322,83,32,critical,3,
5913,Experiment Group,dedicated,0,0,0,1,923,83,32,critical,4,
5913,Experiment Group,team,0,0,critical,1,823,83,32,critical,5,
5913,Experiment Group,will,0,0,spillover_1,1,727,83,32,critical,6,
5913,Experiment Group,be,0,0,spillover_2,1,826,83,32,critical,7,
5913,Experiment Group,managed,0,0,0,1,930,83,32,critical,8,
5913,Experiment Group,by,0,0,0,1,735,83,32,critical,9,
5913,Experiment Group,the,0,0,0,1,938,83,32,critical,10,
5913,Experiment Group,coach,0,0,0,1,890,83,32,critical,11,
5913,Experiment Group,The,0,0,0,1,859,1012,33,filler,0,
5913,Experiment Group,basket,0,0,critical,1,1036,1012,33,filler,1,
5913,Experiment Group,held,0,0,spillover_1,1,1505,1012,33,filler,2,
5913,Experiment Group,the,0,0,spillover_2,1,940,1012,33,filler,3,
5913,Experiment Group,expensive,0,0,0,1,1384,1012,33,filler,4,
5913,Experiment Group,cheeses,0,0,0,1,964,1012,33,filler,5,
5913,Experiment Group,Composed,0,0,0,1,1317,33,34,critical,0,
5913,Experiment Group,of,0,0,0,1,845,33,34,critical,1,
5913,Experiment Group,ice,0,0,0,1,1247,33,34,critical,2,
5913,Experiment Group,cream,0,0,0,1,1076,33,34,critical,3,
5913,Experiment Group,and,0,0,0,1,889,33,34,critical,4,
5913,Experiment Group,"meringue,",0,0,0,1,1308,33,34,critical,5,
5913,Experiment Group,the,0,0,0,1,984,33,34,critical,6,
5913,Experiment Group,baked,0,0,0,1,1069,33,34,critical,7,
5913,Experiment Group,Alaska,0,0,critical,1,1133,33,34,critical,8,
5913,Experiment Group,will,0,0,spillover_1,1,1155,33,34,critical,9,
5913,Experiment Group,be,0,0,spillover_2,1,651,33,34,critical,10,
5913,Experiment Group,presented,0,0,0,1,825,33,34,critical,11,
5913,Experiment Group,by,0,0,0,1,715,33,34,critical,12,
5913,Experiment Group,the,0,0,0,1,1015,33,34,critical,13,
5913,Experiment Group,baker,0,0,0,1,1067,33,34,critical,14,
5913,Experiment Group,The,0,0,0,1,885,1010,35,filler,0,
5913,Experiment Group,editor,0,0,critical,1,1083,1010,35,filler,1,
5913,Experiment Group,mentored,0,0,spillover_1,1,2909,1010,35,filler,2,
5913,Experiment Group,the,0,0,spillover_2,1,1413,1010,35,filler,3,
5913,Experiment Group,stressed,0,0,0,1,1453,1010,35,filler,4,
5913,Experiment Group,writer,0,0,0,1,849,1010,35,filler,5,
5923,Experiment Group,The,0,0,0,1,337,1001,0,filler,0,
5923,Experiment Group,gopher,0,0,critical,1,284,1001,0,filler,1,
5923,Experiment Group,chased,0,0,spillover_1,1,412,1001,0,filler,2,
5923,Experiment Group,the,0,0,spillover_2,1,329,1001,0,filler,3,
5923,Experiment Group,fearful,0,0,0,1,243,1001,0,filler,4,
5923,Experiment Group,rabbit,0,0,0,1,316,1001,0,filler,5,
5923,Experiment Group,The,0,0,0,1,353,1022,1,filler,0,
5923,Experiment Group,dying,0,0,critical,1,1232,1022,1,filler,1,
5923,Experiment Group,the,0,0,spillover_1,1,379,1022,1,filler,2,
5923,Experiment Group,cable,0,0,spillover_2,1,1051,1022,1,filler,3,
5923,Experiment Group,computer,0,0,0,1,515,1022,1,filler,4,
5923,Experiment Group,charges,0,0,0,1,481,1022,1,filler,5,
5923,Experiment Group,The,0,0,0,1,350,1019,2,filler,0,
5923,Experiment Group,difficult,0,0,critical,1,339,1019,2,filler,1,
5923,Experiment Group,grades,0,0,spillover_1,1,342,1019,2,filler,2,
5923,Experiment Group,exam,0,0,spillover_2,1,392,1019,2,filler,3,
5923,Experiment Group,assistant,0,0,0,1,430,1019,2,filler,4,
5923,Experiment Group,the,0,0,0,1,314,1019,2,filler,5,
5923,Experiment Group,teaching,0,0,0,1,379,1019,2,filler,6,
5923,Experiment Group,Totaling,0,0,0,1,307,81,3,critical,0,
5923,Experiment Group,eight,0,0,0,1,547,81,3,critical,1,
5923,Experiment Group,"athletes,",0,0,0,1,366,81,3,critical,2,
5923,Experiment Group,the,0,0,0,1,398,81,3,critical,3,
5923,Experiment Group,coach,0,0,critical,1,306,81,3,critical,4,
5923,Experiment Group,will,0,0,spillover_1,1,282,81,3,critical,5,
5923,Experiment Group,manage,0,0,spillover_2,1,274,81,3,critical,6,
5923,Experiment Group,the,0,0,0,1,250,81,3,critical,7,
5923,Experiment Group,dedicated,0,0,0,1,255,81,3,critical,8,
5923,Experiment Group,team,0,0,0,1,360,81,3,critical,9,
5923,Experiment Group,The,0,0,0,1,331,1021,4,filler,0,
5923,Experiment Group,broken,0,0,critical,1,327,1021,4,filler,1,
5923,Experiment Group,fixes,0,0,spillover_1,1,280,1021,4,filler,2,
5923,Experiment Group,truck,0,0,spillover_2,1,304,1021,4,filler,3,
5923,Experiment Group,engineer,0,0,0,1,319,1021,4,filler,4,
5923,Experiment Group,the,0,0,0,1,291,1021,4,filler,5,
5923,Experiment Group,Containing,0,0,0,1,168,22,5,critical,0,
5923,Experiment Group,all,0,0,0,1,740,22,5,critical,1,
5923,Experiment Group,the,0,0,0,1,236,22,5,critical,2,
5923,Experiment Group,marbles,0,0,0,1,226,22,5,critical,3,
5923,Experiment Group,that,0,0,0,1,220,22,5,critical,4,
5923,Experiment Group,she,0,0,0,1,210,22,5,critical,5,
5923,Experiment Group,"bought,",0,0,0,1,185,22,5,critical,6,
5923,Experiment Group,the,0,0,0,1,219,22,5,critical,7,
5923,Experiment Group,girl,0,0,critical,1,222,22,5,critical,8,
5923,Experiment Group,will,0,0,spillover_1,1,181,22,5,critical,9,
5923,Experiment Group,shake,0,0,spillover_2,1,177,22,5,critical,10,
5923,Experiment Group,the,0,0,0,1,238,22,5,critical,11,
5923,Experiment Group,jar,0,0,0,1,426,22,5,critical,12,
5923,Experiment Group,violently,0,0,0,1,222,22,5,critical,13,
5923,Experiment Group,The,0,0,0,1,403,1006,6,filler,0,
5923,Experiment Group,horse,0,0,critical,1,298,1006,6,filler,1,
5923,Experiment Group,chewed,0,0,spillover_1,1,382,1006,6,filler,2,
5923,Experiment Group,the,0,0,spillover_2,1,247,1006,6,filler,3,
5923,Experiment Group,sweet,0,0,0,1,302,1006,6,filler,4,
5923,Experiment Group,apple,0,0,0,1,310,1006,6,filler,5,
5923,Experiment Group,Derived,0,0,0,1,277,42,7,critical,0,
5923,Experiment Group,from,0,0,0,1,366,42,7,critical,1,
5923,Experiment Group,ancient,0,0,0,1,213,42,7,critical,2,
5923,Experiment Group,Greek,0,0,0,1,386,42,7,critical,3,
5923,Experiment Group,texts,0,0,0,1,357,42,7,critical,4,
5923,Experiment Group,that,0,0,0,1,457,42,7,critical,5,
5923,Experiment Group,she,0,0,0,1,477,42,7,critical,6,
5923,Experiment Group,unearthed,0,0,0,1,366,42,7,critical,7,
5923,Experiment Group,at,0,0,0,1,356,42,7,critical,8,
5923,Experiment Group,the,0,0,0,1,290,42,7,critical,9,
5923,Experiment Group,"temple,",0,0,0,1,278,42,7,critical,10,
5923,Experiment Group,the,0,0,0,1,303,42,7,critical,11,
5923,Experiment Group,student,0,0,critical,1,454,42,7,critical,12,
5923,Experiment Group,will,0,0,spillover_1,1,624,42,7,critical,13,
5923,Experiment Group,study,0,0,spillover_2,1,254,42,7,critical,14,
5923,Experiment Group,the,0,0,0,1,211,42,7,critical,15,
5923,Experiment Group,tome,0,0,0,1,235,42,7,critical,16,
5923,Experiment Group,carefully,0,0,0,1,351,42,7,critical,17,
5923,Experiment Group,The,0,0,0,1,360,1023,8,filler,0,
5923,Experiment Group,acclaimed,0,0,critical,1,340,1023,8,filler,1,
5923,Experiment Group,honors,0,0,spillover_1,1,330,1023,8,filler,2,
5923,Experiment Group,artists,0,0,spillover_2,1,678,1023,8,filler,3,
5923,Experiment Group,gala,0,0,0,1,350,1023,8,filler,4,
5923,Experiment Group,the,0,0,0,1,280,1023,8,filler,5,
5923,Experiment Group,The,0,0,0,1,349,1002,9,filler,0,
5923,Experiment Group,professor,0,0,critical,1,369,1002,9,filler,1,
5923,Experiment Group,played,0,0,spillover_1,1,352,1002,9,filler,2,
5923,Experiment Group,the,0,0,spillover_2,1,326,1002,9,filler,3,
5923,Experiment Group,lovely,0,0,0,1,334,1002,9,filler,4,
5923,Experiment Group,violin,0,0,0,1,284,1002,9,filler,5,
5923,Experiment Group,Built,0,0,0,1,340,72,10,critical,0,
5923,Experiment Group,from,0,0,0,1,409,72,10,critical,1,
5923,Experiment Group,the,0,0,0,1,219,72,10,critical,2,
5923,Experiment Group,ruins,0,0,0,1,235,72,10,critical,3,
5923,Experiment Group,of,0,0,0,1,291,72,10,critical,4,
5923,Experiment Group,the,0,0,0,1,260,72,10,critical,5,
5923,Experiment Group,town,0,0,0,1,280,72,10,critical,6,
5923,Experiment Group,hall,0,0,0,1,336,72,10,critical,7,
5923,Experiment Group,that,0,0,0,1,362,72,10,critical,8,
5923,Experiment Group,he,0,0,0,1,318,72,10,critical,9,
5923,Experiment Group,demolished,0,0,0,1,268,72,10,critical,10,
5923,Experiment Group,last,0,0,0,1,651,72,10,critical,11,
5923,Experiment Group,"year,",0,0,0,1,356,72,10,critical,12,
5923,Experiment Group,the,0,0,0,1,369,72,10,critical,13,
5923,Experiment Group,salesman,0,0,critical,1,294,72,10,critical,14,
5923,Experiment Group,will,0,0,spillover_1,1,403,72,10,critical,15,
5923,Experiment Group,market,0,0,spillover_2,1,353,72,10,critical,16,
5923,Experiment Group,the,0,0,0,1,328,72,10,critical,17,
5923,Experiment Group,new,0,0,0,1,368,72,10,critical,18,
5923,Experiment Group,skyscraper,0,0,0,1,393,72,10,critical,19,
5923,Experiment Group,Running,0,0,0,1,401,53,11,critical,0,
5923,Experiment Group,on,0,0,0,1,332,53,11,critical,1,
5923,Experiment Group,clean,0,0,0,1,278,53,11,critical,2,
5923,Experiment Group,"energy,",0,0,0,1,479,53,11,critical,3,
5923,Experiment Group,the,0,0,0,1,321,53,11,critical,4,
5923,Experiment Group,car,0,0,critical,1,360,53,11,critical,5,
5923,Experiment Group,will,0,0,spillover_1,1,344,53,11,critical,6,
5923,Experiment Group,be,0,0,spillover_2,1,356,53,11,critical,7,
5923,Experiment Group,loved,0,0,0,1,384,53,11,critical,8,
5923,Experiment Group,deeply,0,0,0,1,343,53,11,critical,9,
5923,Experiment Group,by,0,0,0,1,425,53,11,critical,10,
5923,Experiment Group,the,0,0,0,1,206,53,11,critical,11,
5923,Experiment Group,environmentalist,0,0,0,1,608,53,11,critical,12,
5923,Experiment Group,The,0,0,0,1,469,1014,12,filler,0,
5923,Experiment Group,secret,0,0,critical,1,343,1014,12,filler,1,
5923,Experiment Group,protects,0,0,spillover_1,1,427,1014,12,filler,2,
5923,Experiment Group,lock,0,0,spillover_2,1,2355,1014,12,filler,3,
5923,Experiment Group,the,0,0,0,1,451,1014,12,filler,4,
5923,Experiment Group,safe,0,0,0,1,584,1014,12,filler,5,
5923,Experiment Group,The,0,0,0,1,344,1016,13,filler,0,
5923,Experiment Group,sore,0,0,critical,1,372,1016,13,filler,1,
5923,Experiment Group,the,0,0,spillover_1,1,390,1016,13,filler,2,
5923,Experiment Group,athlete,0,0,spillover_2,1,334,1016,13,filler,3,
5923,Experiment Group,massages,0,0,0,1,524,1016,13,filler,4,
5923,Experiment Group,muscles,0,0,0,1,488,1016,13,filler,5,
5923,Experiment Group,The,0,0,0,1,318,1009,14,filler,0,
5923,Experiment Group,knight,0,0,critical,1,317,1009,14,filler,1,
5923,Experiment Group,protected,0,0,spillover_1,1,367,1009,14,filler,2,
5923,Experiment Group,the,0,0,spillover_2,1,323,1009,14,filler,3,
5923,Experiment Group,guarded,0,0,0,1,320,1009,14,filler,4,
5923,Experiment Group,fortress,0,0,0,1,300,1009,14,filler,5,
5923,Experiment Group,The,0,0,0,1,309,1020,15,filler,0,
5923,Experiment Group,valuable,0,0,critical,1,309,1020,15,filler,1,
5923,Experiment Group,the,0,0,spillover_1,1,482,1020,15,filler,2,
5923,Experiment Group,shelf,0,0,spillover_2,1,274,1020,15,filler,3,
5923,Experiment Group,jewelry,0,0,0,1,370,1020,15,filler,4,
5923,Experiment Group,stores,0,0,0,1,308,1020,15,filler,5,
5923,Experiment Group,The,0,0,0,1,261,1010,16,filler,0,
5923,Experiment Group,editor,0,0,critical,1,369,1010,16,filler,1,
5923,Experiment Group,mentored,0,0,spillover_1,1,286,1010,16,filler,2,
5923,Experiment Group,the,0,0,spillover_2,1,272,1010,16,filler,3,
5923,Experiment Group,stressed,0,0,0,1,534,1010,16,filler,4,
5923,Experiment Group,writer,0,0,0,1,206,1010,16,filler,5,
5923,Experiment Group,Spanning,0,0,0,1,331,111,17,critical,0,
5923,Experiment Group,the,0,0,0,1,500,111,17,critical,1,
5923,Experiment Group,peaceful,0,0,0,1,328,111,17,critical,2,
5923,Experiment Group,"countryside,",0,0,0,1,390,111,17,critical,3,
5923,Experiment Group,the,0,0,0,1,359,111,17,critical,4,
5923,Experiment Group,queen,0,0,critical,1,211,111,17,critical,5,
5923,Experiment Group,will,0,0,spillover_1,1,359,111,17,critical,6,
5923,Experiment Group,rule,0,0,spillover_2,1,242,111,17,critical,7,
5923,Experiment Group,the,0,0,0,1,300,111,17,critical,8,
5923,Experiment Group,mountain,0,0,0,1,309,111,17,critical,9,
5923,Experiment Group,territories,0,0,0,1,338,111,17,critical,10,
5923,Experiment Group,Featuring,0,0,0,1,935,123,18,critical,0,
5923,Experiment Group,the,0,0,0,1,296,123,18,critical,1,
5923,Experiment Group,brick,0,0,0,1,397,123,18,critical,2,
5923,Experiment Group,"oven,",0,0,0,1,354,123,18,critical,3,
5923,Experiment Group,the,0,0,0,1,424,123,18,critical,4,
5923,Experiment Group,kitchen,0,0,0,1,354,123,18,critical,5,
5923,Experiment Group,will,0,0,0,1,338,123,18,critical,6,
5923,Experiment Group,be,0,0,0,1,349,123,18,critical,7,
5923,Experiment Group,monitored,0,0,0,1,309,123,18,critical,8,
5923,Experiment Group,by,0,0,0,1,440,123,18,critical,9,
5923,Experiment Group,the,0,0,0,1,310,123,18,critical,10,
5923,Experiment Group,chef,0,0,critical,1,283,123,18,critical,11,
5923,Experiment Group,The,0,0,0,0,411,1015,19,filler,0,
5923,Experiment Group,wet,0,0,critical,0,294,1015,19,filler,1,
5923,Experiment Group,heats,0,0,spillover_1,0,313,1015,19,filler,2,
5923,Experiment Group,dryer,0,0,spillover_2,0,622,1015,19,filler,3,
5923,Experiment Group,the,0,0,0,0,306,1015,19,filler,4,
5923,Experiment Group,clothes,0,0,0,0,310,1015,19,filler,5,
5923,Experiment Group,The,0,0,0,1,271,1012,20,filler,0,
5923,Experiment Group,basket,0,0,critical,1,325,1012,20,filler,1,
5923,Experiment Group,held,0,0,spillover_1,1,367,1012,20,filler,2,
5923,Experiment Group,the,0,0,spillover_2,1,312,1012,20,filler,3,
5923,Experiment Group,expensive,0,0,0,1,285,1012,20,filler,4,
5923,Experiment Group,cheeses,0,0,0,1,302,1012,20,filler,5,
5923,Experiment Group,Consisting,0,0,0,1,492,11,21,critical,0,
5923,Experiment Group,of,0,0,0,1,362,11,21,critical,1,
5923,Experiment Group,ten,0,0,0,1,238,11,21,critical,2,
5923,Experiment Group,"passages,",0,0,0,1,382,11,21,critical,3,
5923,Experiment Group,the,0,0,0,1,403,11,21,critical,4,
5923,Experiment Group,author,0,0,critical,1,327,11,21,critical,5,
5923,Experiment Group,will,0,0,spillover_1,1,308,11,21,critical,6,
5923,Experiment Group,publish,0,0,spillover_2,1,337,11,21,critical,7,
5923,Experiment Group,a,0,0,0,1,255,11,21,critical,8,
5923,Experiment Group,new,0,0,0,1,221,11,21,critical,9,
5923,Experiment Group,book,0,0,0,1,299,11,21,critical,10,
5923,Experiment Group,The,0,0,0,1,348,1008,22,filler,0,
5923,Experiment Group,child,0,0,critical,1,336,1008,22,filler,1,
5923,Experiment Group,played,0,0,spillover_1,1,268,1008,22,filler,2,
5923,Experiment Group,the,0,0,spillover_2,1,266,1008,22,filler,3,
5923,Experiment Group,loud,0,0,0,1,252,1008,22,filler,4,
5923,Experiment Group,drums,0,0,0,1,290,1008,22,filler,5,
5923,Experiment Group,The,0,0,0,1,258,1011,23,filler,0,
5923,Experiment Group,hammer,0,0,critical,1,444,1011,23,filler,1,
5923,Experiment Group,smashed,0,0,spillover_1,1,416,1011,23,filler,2,
5923,Experiment Group,the,0,0,spillover_2,1,376,1011,23,filler,3,
5923,Experiment Group,fragile,0,0,0,1,212,1011,23,filler,4,
5923,Experiment Group,glass,0,0,0,1,359,1011,23,filler,5,
5923,Experiment Group,The,0,0,0,1,386,1018,24,filler,0,
5923,Experiment Group,dangerous,0,0,critical,1,577,1018,24,filler,1,
5923,Experiment Group,mixes,0,0,spillover_1,1,386,1018,24,filler,2,
5923,Experiment Group,chemicals,0,0,spillover_2,1,384,1018,24,filler,3,
5923,Experiment Group,scientist,0,0,0,1,344,1018,24,filler,4,
5923,Experiment Group,the,0,0,0,1,290,1018,24,filler,5,
5923,Experiment Group,The,0,0,0,1,297,1005,25,filler,0,
5923,Experiment Group,wrecking,0,0,critical,1,322,1005,25,filler,1,
5923,Experiment Group,ball,0,0,spillover_1,1,335,1005,25,filler,2,
5923,Experiment Group,demolished,0,0,spillover_2,1,303,1005,25,filler,3,
5923,Experiment Group,the,0,0,0,1,572,1005,25,filler,4,
5923,Experiment Group,decrepit,0,0,0,1,202,1005,25,filler,5,
5923,Experiment Group,building,0,0,0,1,330,1005,25,filler,6,
5923,Experiment Group,Composed,0,0,0,1,493,31,26,critical,0,
5923,Experiment Group,of,0,0,0,1,341,31,26,critical,1,
5923,Experiment Group,ice,0,0,0,1,311,31,26,critical,2,
5923,Experiment Group,cream,0,0,0,1,308,31,26,critical,3,
5923,Experiment Group,and,0,0,0,1,336,31,26,critical,4,
5923,Experiment Group,"meringue,",0,0,0,1,283,31,26,critical,5,
5923,Experiment Group,the,0,0,0,1,359,31,26,critical,6,
5923,Experiment Group,baker,0,0,critical,1,233,31,26,critical,7,
5923,Experiment Group,will,0,0,spillover_1,1,240,31,26,critical,8,
5923,Experiment Group,present,0,0,spillover_2,1,208,31,26,critical,9,
5923,Experiment Group,the,0,0,0,1,222,31,26,critical,10,
5923,Experiment Group,baked,0,0,0,1,239,31,26,critical,11,
5923,Experiment Group,Alaska,0,0,0,1,291,31,26,critical,12,
5923,Experiment Group,The,0,0,0,1,308,1007,27,filler,0,
5923,Experiment Group,librarian,0,0,critical,1,318,1007,27,filler,1,
5923,Experiment Group,shelved,0,0,spillover_1,1,288,1007,27,filler,2,
5923,Experiment Group,the,0,0,spillover_2,1,382,1007,27,filler,3,
5923,Experiment Group,heavy,0,0,0,1,290,1007,27,filler,4,
5923,Experiment Group,book,0,0,0,1,266,1007,27,filler,5,
5923,Experiment Group,The,0,0,0,1,303,1004,28,filler,0,
5923,Experiment Group,monkey,0,0,critical,1,378,1004,28,filler,1,
5923,Experiment Group,ate,0,0,spillover_1,1,364,1004,28,filler,2,
5923,Experiment Group,the,0,0,spillover_2,1,275,1004,28,filler,3,
5923,Experiment Group,ripe,0,0,0,1,283,1004,28,filler,4,
5923,Experiment Group,banana,0,0,0,1,295,1004,28,filler,5,
5923,Experiment Group,Formed,0,0,0,1,316,63,29,critical,0,
5923,Experiment Group,from,0,0,0,1,420,63,29,critical,1,
5923,Experiment Group,slippery,0,0,0,1,366,63,29,critical,2,
5923,Experiment Group,red,0,0,0,1,285,63,29,critical,3,
5923,Experiment Group,"clay,",0,0,0,1,295,63,29,critical,4,
5923,Experiment Group,the,0,0,0,1,317,63,29,critical,5,
5923,Experiment Group,handmade,0,0,0,1,201,63,29,critical,6,
5923,Experiment Group,flowerpot,0,0,critical,1,994,63,29,critical,7,
5923,Experiment Group,will,0,0,spillover_1,1,305,63,29,critical,8,
5923,Experiment Group,be,0,0,spillover_2,1,316,63,29,critical,9,
5923,Experiment Group,admired,0,0,0,1,190,63,29,critical,10,
5923,Experiment Group,by,0,0,0,1,313,63,29,critical,11,
5923,Experiment Group,the,0,0,0,1,261,63,29,critical,12,
5923,Experiment Group,artist,0,0,0,1,269,63,29,critical,13,
5923,Experiment Group,Comprising,0,0,0,1,369,101,30,critical,0,
5923,Experiment Group,six,0,0,0,1,366,101,30,critical,1,
5923,Experiment Group,difficult,0,0,0,1,348,101,30,critical,2,
5923,Experiment Group,"classes,",0,0,0,1,378,101,30,critical,3,
5923,Experiment Group,the,0,0,0,1,436,101,30,critical,4,
5923,Experiment Group,teacher,0,0,critical,1,335,101,30,critical,5,
5923,Experiment Group,will,0,0,spillover_1,1,283,101,30,critical,6,
5923,Experiment Group,manage,0,0,spillover_2,1,325,101,30,critical,7,
5923,Experiment Group,her,0,0,0,1,299,101,30,critical,8,
5923,Experiment Group,busy,0,0,0,1,326,101,30,critical,9,
5923,Experiment Group,schedule,0,0,0,1,350,101,30,critical,10,
5923,Experiment Group,The,0,0,0,1,564,1003,31,filler,0,
5923,Experiment Group,woman,0,0,critical,1,460,1003,31,filler,1,
5923,Experiment Group,washed,0,0,spillover_1,1,400,1003,31,filler,2,
5923,Experiment Group,the,0,0,spillover_2,1,331,1003,31,filler,3,
5923,Experiment Group,dirty,0,0,0,1,274,1003,31,filler,4,
5923,Experiment Group,dishes,0,0,0,1,249,1003,31,filler,5,
5923,Experiment Group,The,0,0,0,1,399,1017,32,filler,0,
5923,Experiment Group,steady,0,0,critical,1,271,1017,32,filler,1,
5923,Experiment Group,the,0,0,spillover_1,1,300,1017,32,filler,2,
5923,Experiment Group,sails,0,0,spillover_2,1,289,1017,32,filler,3,
5923,Experiment Group,captain,0,0,0,1,300,1017,32,filler,4,
5923,Experiment Group,ship,0,0,0,1,371,1017,32,filler,5,
5923,Experiment Group,The,0,0,0,1,251,1013,33,filler,0,
5923,Experiment Group,messy,0,0,critical,1,336,1013,33,filler,1,
5923,Experiment Group,cleans,0,0,spillover_1,1,379,1013,33,filler,2,
5923,Experiment Group,student,0,0,spillover_2,1,286,1013,33,filler,3,
5923,Experiment Group,room,0,0,0,1,257,1013,33,filler,4,
5923,Experiment Group,the,0,0,0,1,249,1013,33,filler,5,
5923,Experiment Group,Housing,0,0,0,1,148,92,34,critical,0,
5923,Experiment Group,only,0,0,0,1,551,92,34,critical,1,
5923,Experiment Group,international,0,0,0,1,276,92,34,critical,2,
5923,Experiment Group,students,0,0,0,1,242,92,34,critical,3,
5923,Experiment Group,that,0,0,0,1,246,92,34,critical,4,
5923,Experiment Group,the,0,0,0,1,225,92,34,critical,5,
5923,Experiment Group,school,0,0,0,1,223,92,34,critical,6,
5923,Experiment Group,"accepted,",0,0,0,1,243,92,34,critical,7,
5923,Experiment Group,the,0,0,0,1,231,92,34,critical,8,
5923,Experiment Group,girls,0,0,critical,1,196,92,34,critical,9,
5923,Experiment Group,will,0,0,spillover_1,1,169,92,34,critical,10,
5923,Experiment Group,occupy,0,0,spillover_2,1,312,92,34,critical,11,
5923,Experiment Group,the,0,0,0,1,234,92,34,critical,12,
5923,Experiment Group,new,0,0,0,1,214,92,34,critical,13,
5923,Experiment Group,dormitory,0,0,0,1,175,92,34,critical,14,
5923,Experiment Group,for,0,0,0,1,257,92,34,critical,15,
5923,Experiment Group,now,0,0,0,1,265,92,34,critical,16,
5923,Experiment Group,The,0,0,0,1,303,1024,35,filler,0,
5923,Experiment Group,blank,0,0,critical,1,315,1024,35,filler,1,
5923,Experiment Group,the,0,0,spillover_1,1,658,1024,35,filler,2,
5923,Experiment Group,painter,0,0,spillover_2,1,319,1024,35,filler,3,
5923,Experiment Group,canvas,0,0,0,1,269,1024,35,filler,4,
5923,Experiment Group,admires,0,0,0,1,202,1024,35,filler,5,
5893,Experiment Group,Containing,0,0,0,1,588,23,0,critical,0,
5893,Experiment Group,all,0,0,0,1,419,23,0,critical,1,
5893,Experiment Group,the,0,0,0,1,354,23,0,critical,2,
5893,Experiment Group,"marbles,",0,0,0,1,442,23,0,critical,3,
5893,Experiment Group,the,0,0,0,1,440,23,0,critical,4,
5893,Experiment Group,jar,0,0,critical,1,420,23,0,critical,5,
5893,Experiment Group,will,0,0,spillover_1,1,365,23,0,critical,6,
5893,Experiment Group,be,0,0,spillover_2,1,494,23,0,critical,7,
5893,Experiment Group,violently,0,0,0,1,451,23,0,critical,8,
5893,Experiment Group,shaken,0,0,0,1,409,23,0,critical,9,
5893,Experiment Group,by,0,0,0,1,397,23,0,critical,10,
5893,Experiment Group,the,0,0,0,1,371,23,0,critical,11,
5893,Experiment Group,girl,0,0,0,1,2249,23,0,critical,12,
5893,Experiment Group,The,0,0,0,1,425,1016,1,filler,0,
5893,Experiment Group,sore,0,0,critical,1,426,1016,1,filler,1,
5893,Experiment Group,the,0,0,spillover_1,1,348,1016,1,filler,2,
5893,Experiment Group,athlete,0,0,spillover_2,1,481,1016,1,filler,3,
5893,Experiment Group,massages,0,0,0,1,600,1016,1,filler,4,
5893,Experiment Group,muscles,0,0,0,1,492,1016,1,filler,5,
5893,Experiment Group,The,0,0,0,1,386,1007,2,filler,0,
5893,Experiment Group,librarian,0,0,critical,1,348,1007,2,filler,1,
5893,Experiment Group,shelved,0,0,spillover_1,1,369,1007,2,filler,2,
5893,Experiment Group,the,0,0,spillover_2,1,377,1007,2,filler,3,
5893,Experiment Group,heavy,0,0,0,1,369,1007,2,filler,4,
5893,Experiment Group,book,0,0,0,1,382,1007,2,filler,5,
5893,Experiment Group,The,0,0,0,1,467,1022,3,filler,0,
5893,Experiment Group,dying,0,0,critical,1,330,1022,3,filler,1,
5893,Experiment Group,the,0,0,spillover_1,1,382,1022,3,filler,2,
5893,Experiment Group,cable,0,0,spillover_2,1,466,1022,3,filler,3,
5893,Experiment Group,computer,0,0,0,1,359,1022,3,filler,4,
5893,Experiment Group,charges,0,0,0,1,796,1022,3,filler,5,
5893,Experiment Group,The,0,0,0,1,367,1009,4,filler,0,
5893,Experiment Group,knight,0,0,critical,1,400,1009,4,filler,1,
5893,Experiment Group,protected,0,0,spillover_1,1,402,1009,4,filler,2,
5893,Experiment Group,the,0,0,spillover_2,1,351,1009,4,filler,3,
5893,Experiment Group,guarded,0,0,0,1,435,1009,4,filler,4,
5893,Experiment Group,fortress,0,0,0,1,473,1009,4,filler,5,
5893,Experiment Group,The,0,0,0,1,351,1011,5,filler,0,
5893,Experiment Group,hammer,0,0,critical,1,410,1011,5,filler,1,
5893,Experiment Group,smashed,0,0,spillover_1,1,418,1011,5,filler,2,
5893,Experiment Group,the,0,0,spillover_2,1,426,1011,5,filler,3,
5893,Experiment Group,fragile,0,0,0,1,410,1011,5,filler,4,
5893,Experiment Group,glass,0,0,0,1,484,1011,5,filler,5,
5893,Experiment Group,The,0,0,0,1,389,1012,6,filler,0,
5893,Experiment Group,basket,0,0,critical,1,420,1012,6,filler,1,
5893,Experiment Group,held,0,0,spillover_1,1,409,1012,6,filler,2,
5893,Experiment Group,the,0,0,spillover_2,1,341,1012,6,filler,3,
5893,Experiment Group,expensive,0,0,0,1,352,1012,6,filler,4,
5893,Experiment Group,cheeses,0,0,0,1,462,1012,6,filler,5,
5893,Experiment Group,The,0,0,0,1,402,1023,7,filler,0,
5893,Experiment Group,acclaimed,0,0,critical,1,418,1023,7,filler,1,
5893,Experiment Group,honors,0,0,spillover_1,1,411,1023,7,filler,2,
5893,Experiment Group,artists,0,0,spillover_2,1,406,1023,7,filler,3,
5893,Experiment Group,gala,0,0,0,1,394,1023,7,filler,4,
5893,Experiment Group,the,0,0,0,1,484,1023,7,filler,5,
5893,Experiment Group,Derived,0,0,0,1,399,41,8,critical,0,
5893,Experiment Group,from,0,0,0,1,409,41,8,critical,1,
5893,Experiment Group,ancient,0,0,0,1,378,41,8,critical,2,
5893,Experiment Group,Greek,0,0,0,1,426,41,8,critical,3,
5893,Experiment Group,"texts,",0,0,0,1,378,41,8,critical,4,
5893,Experiment Group,the,0,0,0,1,430,41,8,critical,5,
5893,Experiment Group,student,0,0,critical,1,494,41,8,critical,6,
5893,Experiment Group,will,0,0,spillover_1,1,427,41,8,critical,7,
5893,Experiment Group,study,0,0,spillover_2,1,383,41,8,critical,8,
5893,Experiment Group,the,0,0,0,1,343,41,8,critical,9,
5893,Experiment Group,tome,0,0,0,1,341,41,8,critical,10,
5893,Experiment Group,carefully,0,0,0,1,676,41,8,critical,11,
5893,Experiment Group,The,0,0,0,1,432,1010,9,filler,0,
5893,Experiment Group,editor,0,0,critical,1,520,1010,9,filler,1,
5893,Experiment Group,mentored,0,0,spillover_1,1,484,1010,9,filler,2,
5893,Experiment Group,the,0,0,spillover_2,1,683,1010,9,filler,3,
5893,Experiment Group,stressed,0,0,0,1,354,1010,9,filler,4,
5893,Experiment Group,writer,0,0,0,1,458,1010,9,filler,5,
5893,Experiment Group,Consisting,0,0,0,1,382,13,10,critical,0,
5893,Experiment Group,of,0,0,0,1,753,13,10,critical,1,
5893,Experiment Group,ten,0,0,0,1,627,13,10,critical,2,
5893,Experiment Group,"passages,",0,0,0,1,435,13,10,critical,3,
5893,Experiment Group,a,0,0,0,1,776,13,10,critical,4,
5893,Experiment Group,new,0,0,0,1,357,13,10,critical,5,
5893,Experiment Group,book,0,0,critical,1,367,13,10,critical,6,
5893,Experiment Group,will,0,0,spillover_1,1,443,13,10,critical,7,
5893,Experiment Group,be,0,0,spillover_2,1,507,13,10,critical,8,
5893,Experiment Group,published,0,0,0,1,380,13,10,critical,9,
5893,Experiment Group,by,0,0,0,1,410,13,10,critical,10,
5893,Experiment Group,the,0,0,0,1,331,13,10,critical,11,
5893,Experiment Group,author,0,0,0,1,551,13,10,critical,12,
5893,Experiment Group,Spanning,0,0,0,1,373,113,11,critical,0,
5893,Experiment Group,the,0,0,0,1,373,113,11,critical,1,
5893,Experiment Group,peaceful,0,0,0,1,426,113,11,critical,2,
5893,Experiment Group,"countryside,",0,0,0,1,477,113,11,critical,3,
5893,Experiment Group,the,0,0,0,1,341,113,11,critical,4,
5893,Experiment Group,mountain,0,0,0,1,375,113,11,critical,5,
5893,Experiment Group,territories,0,0,0,1,410,113,11,critical,6,
5893,Experiment Group,will,0,0,0,1,435,113,11,critical,7,
5893,Experiment Group,be,0,0,0,1,316,113,11,critical,8,
5893,Experiment Group,ruled,0,0,0,1,344,113,11,critical,9,
5893,Experiment Group,by,0,0,0,1,298,113,11,critical,10,
5893,Experiment Group,the,0,0,0,1,344,113,11,critical,11,
5893,Experiment Group,queen,0,0,critical,1,562,113,11,critical,12,
5893,Experiment Group,The,0,0,0,1,310,1001,12,filler,0,
5893,Experiment Group,gopher,0,0,critical,1,359,1001,12,filler,1,
5893,Experiment Group,chased,0,0,spillover_1,1,308,1001,12,filler,2,
5893,Experiment Group,the,0,0,spillover_2,1,309,1001,12,filler,3,
5893,Experiment Group,fearful,0,0,0,1,283,1001,12,filler,4,
5893,Experiment Group,rabbit,0,0,0,1,284,1001,12,filler,5,
5893,Experiment Group,The,0,0,0,0,336,1015,13,filler,0,
5893,Experiment Group,wet,0,0,critical,0,339,1015,13,filler,1,
5893,Experiment Group,heats,0,0,spillover_1,0,337,1015,13,filler,2,
5893,Experiment Group,dryer,0,0,spillover_2,0,319,1015,13,filler,3,
5893,Experiment Group,the,0,0,0,0,329,1015,13,filler,4,
5893,Experiment Group,clothes,0,0,0,0,632,1015,13,filler,5,
5893,Experiment Group,Comprising,0,0,0,1,433,103,14,critical,0,
5893,Experiment Group,six,0,0,0,1,362,103,14,critical,1,
5893,Experiment Group,difficult,0,0,0,1,565,103,14,critical,2,
5893,Experiment Group,"classes,",0,0,0,1,336,103,14,critical,3,
5893,Experiment Group,the,0,0,0,1,444,103,14,critical,4,
5893,Experiment Group,busy,0,0,0,1,342,103,14,critical,5,
5893,Experiment Group,schedule,0,0,critical,1,280,103,14,critical,6,
5893,Experiment Group,will,0,0,spillover_1,1,352,103,14,critical,7,
5893,Experiment Group,be,0,0,spillover_2,1,379,103,14,critical,8,
5893,Experiment Group,managed,0,0,0,1,323,103,14,critical,9,
5893,Experiment Group,by,0,0,0,1,427,103,14,critical,10,
5893,Experiment Group,the,0,0,0,1,390,103,14,critical,11,
5893,Experiment Group,teacher,0,0,0,1,575,103,14,critical,12,
5893,Experiment Group,The,0,0,0,1,363,1018,15,filler,0,
5893,Experiment Group,dangerous,0,0,critical,1,354,1018,15,filler,1,
5893,Experiment Group,mixes,0,0,spillover_1,1,333,1018,15,filler,2,
5893,Experiment Group,chemicals,0,0,spillover_2,1,446,1018,15,filler,3,
5893,Experiment Group,scientist,0,0,0,1,397,1018,15,filler,4,
5893,Experiment Group,the,0,0,0,1,419,1018,15,filler,5,
5893,Experiment Group,The,0,0,0,1,355,1021,16,filler,0,
5893,Experiment Group,broken,0,0,critical,1,559,1021,16,filler,1,
5893,Experiment Group,fixes,0,0,spillover_1,1,364,1021,16,filler,2,
5893,Experiment Group,truck,0,0,spillover_2,1,343,1021,16,filler,3,
5893,Experiment Group,engineer,0,0,0,1,726,1021,16,filler,4,
5893,Experiment Group,the,0,0,0,1,583,1021,16,filler,5,
5893,Experiment Group,The,0,0,0,1,468,1005,17,filler,0,
5893,Experiment Group,wrecking,0,0,critical,1,477,1005,17,filler,1,
5893,Experiment Group,ball,0,0,spillover_1,1,316,1005,17,filler,2,
5893,Experiment Group,demolished,0,0,spillover_2,1,383,1005,17,filler,3,
5893,Experiment Group,the,0,0,0,1,302,1005,17,filler,4,
5893,Experiment Group,decrepit,0,0,0,1,375,1005,17,filler,5,
5893,Experiment Group,building,0,0,0,1,286,1005,17,filler,6,
5893,Experiment Group,The,0,0,0,1,351,1006,18,filler,0,
5893,Experiment Group,horse,0,0,critical,1,327,1006,18,filler,1,
5893,Experiment Group,chewed,0,0,spillover_1,1,350,1006,18,filler,2,
5893,Experiment Group,the,0,0,spillover_2,1,285,1006,18,filler,3,
5893,Experiment Group,sweet,0,0,0,1,325,1006,18,filler,4,
5893,Experiment Group,apple,0,0,0,1,376,1006,18,filler,5,
5893,Experiment Group,The,0,0,0,1,378,1013,19,filler,0,
5893,Experiment Group,messy,0,0,critical,1,336,1013,19,filler,1,
5893,Experiment Group,cleans,0,0,spillover_1,1,526,1013,19,filler,2,
5893,Experiment Group,student,0,0,spillover_2,1,351,1013,19,filler,3,
5893,Experiment Group,room,0,0,0,1,359,1013,19,filler,4,
5893,Experiment Group,the,0,0,0,1,318,1013,19,filler,5,
5893,Experiment Group,Featuring,0,0,0,1,457,124,20,critical,0,
5893,Experiment Group,the,0,0,0,1,367,124,20,critical,1,
5893,Experiment Group,brick,0,0,0,1,293,124,20,critical,2,
5893,Experiment Group,oven,0,0,0,1,451,124,20,critical,3,
5893,Experiment Group,that,0,0,0,1,369,124,20,critical,4,
5893,Experiment Group,he,0,0,0,1,350,124,20,critical,5,
5893,Experiment Group,installed,0,0,0,1,267,124,20,critical,6,
5893,Experiment Group,last,0,0,0,1,360,124,20,critical,7,
5893,Experiment Group,"week,",0,0,0,1,290,124,20,critical,8,
5893,Experiment Group,the,0,0,0,1,372,124,20,critical,9,
5893,Experiment Group,kitchen,0,0,0,1,305,124,20,critical,10,
5893,Experiment Group,will,0,0,0,1,381,124,20,critical,11,
5893,Experiment Group,be,0,0,0,1,300,124,20,critical,12,
5893,Experiment Group,monitored,0,0,0,1,297,124,20,critical,13,
5893,Experiment Group,by,0,0,0,1,311,124,20,critical,14,
5893,Experiment Group,the,0,0,0,1,241,124,20,critical,15,
5893,Experiment Group,chef,0,0,critical,1,393,124,20,critical,16,
5893,Experiment Group,Composed,0,0,0,1,356,32,21,critical,0,
5893,Experiment Group,of,0,0,0,1,360,32,21,critical,1,
5893,Experiment Group,ice,0,0,0,1,375,32,21,critical,2,
5893,Experiment Group,cream,0,0,0,1,496,32,21,critical,3,
5893,Experiment Group,and,0,0,0,1,267,32,21,critical,4,
5893,Experiment Group,meringue,0,0,0,1,355,32,21,critical,5,
5893,Experiment Group,that,0,0,0,1,276,32,21,critical,6,
5893,Experiment Group,she,0,0,0,1,302,32,21,critical,7,
5893,Experiment Group,"prepared,",0,0,0,1,321,32,21,critical,8,
5893,Experiment Group,the,0,0,0,1,280,32,21,critical,9,
5893,Experiment Group,baker,0,0,critical,1,325,32,21,critical,10,
5893,Experiment Group,will,0,0,spillover_1,1,309,32,21,critical,11,
5893,Experiment Group,present,0,0,spillover_2,1,319,32,21,critical,12,
5893,Experiment Group,the,0,0,0,1,358,32,21,critical,13,
5893,Experiment Group,baked,0,0,0,1,300,32,21,critical,14,
5893,Experiment Group,Alaska,0,0,0,1,343,32,21,critical,15,
5893,Experiment Group,The,0,0,0,1,337,1003,22,filler,0,
5893,Experiment Group,woman,0,0,critical,1,348,1003,22,filler,1,
5893,Experiment Group,washed,0,0,spillover_1,1,342,1003,22,filler,2,
5893,Experiment Group,the,0,0,spillover_2,1,307,1003,22,filler,3,
5893,Experiment Group,dirty,0,0,0,1,286,1003,22,filler,4,
5893,Experiment Group,dishes,0,0,0,1,286,1003,22,filler,5,
5893,Experiment Group,Totaling,0,0,0,1,492,81,23,critical,0,
5893,Experiment Group,eight,0,0,0,1,468,81,23,critical,1,
5893,Experiment Group,"athletes,",0,0,0,1,318,81,23,critical,2,
5893,Experiment Group,the,0,0,0,1,349,81,23,critical,3,
5893,Experiment Group,coach,0,0,critical,1,369,81,23,critical,4,
5893,Experiment Group,will,0,0,spillover_1,1,427,81,23,critical,5,
5893,Experiment Group,manage,0,0,spillover_2,1,291,81,23,critical,6,
5893,Experiment Group,the,0,0,0,1,327,81,23,critical,7,
5893,Experiment Group,dedicated,0,0,0,1,307,81,23,critical,8,
5893,Experiment Group,team,0,0,0,1,254,81,23,critical,9,
5893,Experiment Group,The,0,0,0,1,330,1008,24,filler,0,
5893,Experiment Group,child,0,0,critical,1,308,1008,24,filler,1,
5893,Experiment Group,played,0,0,spillover_1,1,322,1008,24,filler,2,
5893,Experiment Group,the,0,0,spillover_2,1,285,1008,24,filler,3,
5893,Experiment Group,loud,0,0,0,1,319,1008,24,filler,4,
5893,Experiment Group,drums,0,0,0,1,418,1008,24,filler,5,
5893,Experiment Group,The,0,0,0,1,393,1014,25,filler,0,
5893,Experiment Group,secret,0,0,critical,1,336,1014,25,filler,1,
5893,Experiment Group,protects,0,0,spillover_1,1,435,1014,25,filler,2,
5893,Experiment Group,lock,0,0,spillover_2,1,291,1014,25,filler,3,
5893,Experiment Group,the,0,0,0,1,414,1014,25,filler,4,
5893,Experiment Group,safe,0,0,0,1,493,1014,25,filler,5,
5893,Experiment Group,Running,0,0,0,1,354,51,26,critical,0,
5893,Experiment Group,on,0,0,0,1,418,51,26,critical,1,
5893,Experiment Group,clean,0,0,0,1,340,51,26,critical,2,
5893,Experiment Group,"energy,",0,0,0,1,340,51,26,critical,3,
5893,Experiment Group,the,0,0,0,1,401,51,26,critical,4,
5893,Experiment Group,environmentalist,0,0,critical,1,346,51,26,critical,5,
5893,Experiment Group,will,0,0,spillover_1,1,316,51,26,critical,6,
5893,Experiment Group,love,0,0,spillover_2,1,302,51,26,critical,7,
5893,Experiment Group,his,0,0,0,1,291,51,26,critical,8,
5893,Experiment Group,car,0,0,0,1,284,51,26,critical,9,
5893,Experiment Group,deeply,0,0,0,1,256,51,26,critical,10,
5893,Experiment Group,The,0,0,0,1,351,1002,27,filler,0,
5893,Experiment Group,professor,0,0,critical,1,345,1002,27,filler,1,
5893,Experiment Group,played,0,0,spillover_1,1,335,1002,27,filler,2,
5893,Experiment Group,the,0,0,spillover_2,1,449,1002,27,filler,3,
5893,Experiment Group,lovely,0,0,0,1,358,1002,27,filler,4,
5893,Experiment Group,violin,0,0,0,1,355,1002,27,filler,5,
5893,Experiment Group,The,0,0,0,1,337,1020,28,filler,0,
5893,Experiment Group,valuable,0,0,critical,1,382,1020,28,filler,1,
5893,Experiment Group,the,0,0,spillover_1,1,479,1020,28,filler,2,
5893,Experiment Group,shelf,0,0,spillover_2,1,426,1020,28,filler,3,
5893,Experiment Group,jewelry,0,0,0,1,292,1020,28,filler,4,
5893,Experiment Group,stores,0,0,0,1,357,1020,28,filler,5,
5893,Experiment Group,The,0,0,0,1,312,1024,29,filler,0,
5893,Experiment Group,blank,0,0,critical,1,420,1024,29,filler,1,
5893,Experiment Group,the,0,0,spillover_1,1,453,1024,29,filler,2,
5893,Experiment Group,painter,0,0,spillover_2,1,357,1024,29,filler,3,
5893,Experiment Group,canvas,0,0,0,1,327,1024,29,filler,4,
5893,Experiment Group,admires,0,0,0,1,323,1024,29,filler,5,
5893,Experiment Group,Built,0,0,0,1,384,71,30,critical,0,
5893,Experiment Group,from,0,0,0,1,350,71,30,critical,1,
5893,Experiment Group,the,0,0,0,1,286,71,30,critical,2,
5893,Experiment Group,ruins,0,0,0,1,309,71,30,critical,3,
5893,Experiment Group,of,0,0,0,1,323,71,30,critical,4,
5893,Experiment Group,the,0,0,0,1,301,71,30,critical,5,
5893,Experiment Group,town,0,0,0,1,310,71,30,critical,6,
5893,Experiment Group,"hall,",0,0,0,1,342,71,30,critical,7,
5893,Experiment Group,the,0,0,0,1,369,71,30,critical,8,
5893,Experiment Group,salesman,0,0,critical,1,382,71,30,critical,9,
5893,Experiment Group,will,0,0,spillover_1,1,336,71,30,critical,10,
5893,Experiment Group,market,0,0,spillover_2,1,365,71,30,critical,11,
5893,Experiment Group,the,0,0,0,1,384,71,30,critical,12,
5893,Experiment Group,new,0,0,0,1,418,71,30,critical,13,
5893,Experiment Group,skyscraper,0,0,0,1,443,71,30,critical,14,
5893,Experiment Group,Formed,0,0,0,1,384,64,31,critical,0,
5893,Experiment Group,from,0,0,0,1,409,64,31,critical,1,
5893,Experiment Group,slippery,0,0,0,1,285,64,31,critical,2,
5893,Experiment Group,red,0,0,0,1,303,64,31,critical,3,
5893,Experiment Group,clay,0,0,0,1,281,64,31,critical,4,
5893,Experiment Group,that,0,0,0,1,327,64,31,critical,5,
5893,Experiment Group,he,0,0,0,1,351,64,31,critical,6,
5893,Experiment Group,bought,0,0,0,1,308,64,31,critical,7,
5893,Experiment Group,in,0,0,0,1,385,64,31,critical,8,
5893,Experiment Group,New,0,0,0,1,332,64,31,critical,9,
5893,Experiment Group,"Mexico,",0,0,0,1,379,64,31,critical,10,
5893,Experiment Group,the,0,0,0,1,325,64,31,critical,11,
5893,Experiment Group,handmade,0,0,0,1,341,64,31,critical,12,
5893,Experiment Group,flowerpot,0,0,critical,1,384,64,31,critical,13,
5893,Experiment Group,will,0,0,spillover_1,1,309,64,31,critical,14,
5893,Experiment Group,be,0,0,spillover_2,1,285,64,31,critical,15,
5893,Experiment Group,admired,0,0,0,1,308,64,31,critical,16,
5893,Experiment Group,by,0,0,0,1,309,64,31,critical,17,
5893,Experiment Group,the,0,0,0,1,299,64,31,critical,18,
5893,Experiment Group,artist,0,0,0,1,332,64,31,critical,19,
5893,Experiment Group,The,0,0,0,1,342,1017,32,filler,0,
5893,Experiment Group,steady,0,0,critical,1,397,1017,32,filler,1,
5893,Experiment Group,the,0,0,spillover_1,1,370,1017,32,filler,2,
5893,Experiment Group,sails,0,0,spillover_2,1,524,1017,32,filler,3,
5893,Experiment Group,captain,0,0,0,1,310,1017,32,filler,4,
5893,Experiment Group,ship,0,0,0,1,317,1017,32,filler,5,
5893,Experiment Group,Housing,0,0,0,1,378,92,33,critical,0,
5893,Experiment Group,only,0,0,0,1,337,92,33,critical,1,
5893,Experiment Group,international,0,0,0,1,300,92,33,critical,2,
5893,Experiment Group,students,0,0,0,1,409,92,33,critical,3,
5893,Experiment Group,that,0,0,0,1,327,92,33,critical,4,
5893,Experiment Group,the,0,0,0,1,380,92,33,critical,5,
5893,Experiment Group,school,0,0,0,1,277,92,33,critical,6,
5893,Experiment Group,"accepted,",0,0,0,1,334,92,33,critical,7,
5893,Experiment Group,the,0,0,0,1,283,92,33,critical,8,
5893,Experiment Group,girls,0,0,critical,1,310,92,33,critical,9,
5893,Experiment Group,will,0,0,spillover_1,1,319,92,33,critical,10,
5893,Experiment Group,occupy,0,0,spillover_2,1,332,92,33,critical,11,
5893,Experiment Group,the,0,0,0,1,300,92,33,critical,12,
5893,Experiment Group,new,0,0,0,1,359,92,33,critical,13,
5893,Experiment Group,dormitory,0,0,0,1,433,92,33,critical,14,
5893,Experiment Group,for,0,0,0,1,359,92,33,critical,15,
5893,Experiment Group,now,0,0,0,1,435,92,33,critical,16,
5893,Experiment Group,The,0,0,0,1,334,1004,34,filler,0,
5893,Experiment Group,monkey,0,0,critical,1,326,1004,34,filler,1,
5893,Experiment Group,ate,0,0,spillover_1,1,335,1004,34,filler,2,
5893,Experiment Group,the,0,0,spillover_2,1,357,1004,34,filler,3,
5893,Experiment Group,ripe,0,0,0,1,334,1004,34,filler,4,
5893,Experiment Group,banana,0,0,0,1,343,1004,34,filler,5,
5893,Experiment Group,The,0,0,0,1,340,1019,35,filler,0,
5893,Experiment Group,difficult,0,0,critical,1,412,1019,35,filler,1,
5893,Experiment Group,grades,0,0,spillover_1,1,426,1019,35,filler,2,
5893,Experiment Group,exam,0,0,spillover_2,1,376,1019,35,filler,3,
5893,Experiment Group,assistant,0,0,0,1,414,1019,35,filler,4,
5893,Experiment Group,the,0,0,0,1,285,1019,35,filler,5,
5893,Experiment Group,teaching,0,0,0,1,605,1019,35,filler,6,
5901,Experiment Group,The,0,0,0,1,760,1013,0,filler,0,
5901,Experiment Group,messy,0,0,critical,1,744,1013,0,filler,1,
5901,Experiment Group,cleans,0,0,spillover_1,1,816,1013,0,filler,2,
5901,Experiment Group,student,0,0,spillover_2,1,832,1013,0,filler,3,
5901,Experiment Group,room,0,0,0,1,616,1013,0,filler,4,
5901,Experiment Group,the,0,0,0,1,2559,1013,0,filler,5,
5901,Experiment Group,The,0,0,0,1,776,1014,1,filler,0,
5901,Experiment Group,secret,0,0,critical,1,624,1014,1,filler,1,
5901,Experiment Group,protects,0,0,spillover_1,1,736,1014,1,filler,2,
5901,Experiment Group,lock,0,0,spillover_2,1,1040,1014,1,filler,3,
5901,Experiment Group,the,0,0,0,1,448,1014,1,filler,4,
5901,Experiment Group,safe,0,0,0,1,528,1014,1,filler,5,
5901,Experiment Group,The,0,0,0,1,536,1008,2,filler,0,
5901,Experiment Group,child,0,0,critical,1,512,1008,2,filler,1,
5901,Experiment Group,played,0,0,spillover_1,1,440,1008,2,filler,2,
5901,Experiment Group,the,0,0,spillover_2,1,432,1008,2,filler,3,
5901,Experiment Group,loud,0,0,0,1,368,1008,2,filler,4,
5901,Experiment Group,drums,0,0,0,1,520,1008,2,filler,5,
5901,Experiment Group,The,0,0,0,1,519,1010,3,filler,0,
5901,Experiment Group,editor,0,0,critical,1,449,1010,3,filler,1,
5901,Experiment Group,mentored,0,0,spillover_1,1,576,1010,3,filler,2,
5901,Experiment Group,the,0,0,spillover_2,1,672,1010,3,filler,3,
5901,Experiment Group,stressed,0,0,0,1,664,1010,3,filler,4,
5901,Experiment Group,writer,0,0,0,1,488,1010,3,filler,5,
5901,Experiment Group,The,0,0,0,1,552,1024,4,filler,0,
5901,Experiment Group,blank,0,0,critical,1,504,1024,4,filler,1,
5901,Experiment Group,the,0,0,spillover_1,1,480,1024,4,filler,2,
5901,Experiment Group,painter,0,0,spillover_2,1,504,1024,4,filler,3,
5901,Experiment Group,canvas,0,0,0,1,512,1024,4,filler,4,
5901,Experiment Group,admires,0,0,0,1,575,1024,4,filler,5,
5901,Experiment Group,The,0,0,0,1,672,1006,5,filler,0,
5901,Experiment Group,horse,0,0,critical,1,583,1006,5,filler,1,
5901,Experiment Group,chewed,0,0,spillover_1,1,513,1006,5,filler,2,
5901,Experiment Group,the,0,0,spillover_2,1,375,1006,5,filler,3,
5901,Experiment Group,sweet,0,0,0,1,377,1006,5,filler,4,
5901,Experiment Group,apple,0,0,0,1,640,1006,5,filler,5,
5901,Experiment Group,Spanning,0,0,0,1,953,111,6,critical,0,
5901,Experiment Group,the,0,0,0,1,463,111,6,critical,1,
5901,Experiment Group,peaceful,0,0,0,1,521,111,6,critical,2,
5901,Experiment Group,"countryside,",0,0,0,1,663,111,6,critical,3,
5901,Experiment Group,the,0,0,0,1,529,111,6,critical,4,
5901,Experiment Group,queen,0,0,critical,1,376,111,6,critical,5,
5901,Experiment Group,will,0,0,spillover_1,1,400,111,6,critical,6,
5901,Experiment Group,rule,0,0,spillover_2,1,320,111,6,critical,7,
5901,Experiment Group,the,0,0,0,1,344,111,6,critical,8,
5901,Experiment Group,mountain,0,0,0,1,400,111,6,critical,9,
5901,Experiment Group,territories,0,0,0,1,688,111,6,critical,10,
5901,Experiment Group,The,0,0,0,1,568,1005,7,filler,0,
5901,Experiment Group,wrecking,0,0,critical,1,567,1005,7,filler,1,
5901,Experiment Group,ball,0,0,spillover_1,1,441,1005,7,filler,2,
5901,Experiment Group,demolished,0,0,spillover_2,1,552,1005,7,filler,3,
5901,Experiment Group,the,0,0,0,1,383,1005,7,filler,4,
5901,Experiment Group,decrepit,0,0,0,1,489,1005,7,filler,5,
5901,Experiment Group,building,0,0,0,1,752,1005,7,filler,6,
5901,Experiment Group,The,0,0,0,1,520,1011,8,filler,0,
5901,Experiment Group,hammer,0,0,critical,1,632,1011,8,filler,1,
5901,Experiment Group,smashed,0,0,spillover_1,1,544,1011,8,filler,2,
5901,Experiment Group,the,0,0,spillover_2,1,311,1011,8,filler,3,
5901,Experiment Group,fragile,0,0,0,1,393,1011,8,filler,4,
5901,Experiment Group,glass,0,0,0,1,576,1011,8,filler,5,
5901,Experiment Group,The,0,0,0,0,679,1015,9,filler,0,
5901,Experiment Group,wet,0,0,critical,0,593,1015,9,filler,1,
5901,Experiment Group,heats,0,0,spillover_1,0,415,1015,9,filler,2,
5901,Experiment Group,dryer,0,0,spillover_2,0,641,1015,9,filler,3,
5901,Experiment Group,the,0,0,0,0,480,1015,9,filler,4,
5901,Experiment Group,clothes,0,0,0,0,560,1015,9,filler,5,
5901,Experiment Group,Built,0,0,0,1,607,71,10,critical,0,
5901,Experiment Group,from,0,0,0,1,481,71,10,critical,1,
5901,Experiment Group,the,0,0,0,1,400,71,10,critical,2,
5901,Experiment Group,ruins,0,0,0,1,455,71,10,critical,3,
5901,Experiment Group,of,0,0,0,1,465,71,10,critical,4,
5901,Experiment Group,the,0,0,0,1,415,71,10,critical,5,
5901,Experiment Group,town,0,0,0,1,473,71,10,critical,6,
5901,Experiment Group,"hall,",0,0,0,1,472,71,10,critical,7,
5901,Experiment Group,the,0,0,0,1,472,71,10,critical,8,
5901,Experiment Group,salesman,0,0,critical,1,392,71,10,critical,9,
5901,Experiment Group,will,0,0,spillover_1,1,304,71,10,critical,10,
5901,Experiment Group,market,0,0,spillover_2,1,320,71,10,critical,11,
5901,Experiment Group,the,0,0,0,1,376,71,10,critical,12,
5901,Experiment Group,new,0,0,0,1,280,71,10,critical,13,
5901,Experiment Group,skyscraper,0,0,0,1,351,71,10,critical,14,
5901,Experiment Group,The,0,0,0,1,425,1001,11,filler,0,
5901,Experiment Group,gopher,0,0,critical,1,440,1001,11,filler,1,
5901,Experiment Group,chased,0,0,spillover_1,1,480,1001,11,filler,2,
5901,Experiment Group,the,0,0,spillover_2,1,455,1001,11,filler,3,
5901,Experiment Group,fearful,0,0,0,1,568,1001,11,filler,4,
5901,Experiment Group,rabbit,0,0,0,1,520,1001,11,filler,5,
5901,Experiment Group,Containing,0,0,0,1,520,24,12,critical,0,
5901,Experiment Group,all,0,0,0,1,431,24,12,critical,1,
5901,Experiment Group,the,0,0,0,1,369,24,12,critical,2,
5901,Experiment Group,marbles,0,0,0,1,415,24,12,critical,3,
5901,Experiment Group,that,0,0,0,1,376,24,12,critical,4,
5901,Experiment Group,she,0,0,0,1,361,24,12,critical,5,
5901,Experiment Group,"bought,",0,0,0,1,455,24,12,critical,6,
5901,Experiment Group,the,0,0,0,1,464,24,12,critical,7,
5901,Experiment Group,jar,0,0,critical,1,336,24,12,critical,8,
5901,Experiment Group,will,0,0,spillover_1,1,280,24,12,critical,9,
5901,Experiment Group,be,0,0,spillover_2,1,336,24,12,critical,10,
5901,Experiment Group,violently,0,0,0,1,280,24,12,critical,11,
5901,Experiment Group,shaken,0,0,0,1,464,24,12,critical,12,
5901,Experiment Group,by,0,0,0,1,441,24,12,critical,13,
5901,Experiment Group,the,0,0,0,1,424,24,12,critical,14,
5901,Experiment Group,girl,0,0,0,1,496,24,12,critical,15,
5901,Experiment Group,The,0,0,0,1,383,1009,13,filler,0,
5901,Experiment Group,knight,0,0,critical,1,393,1009,13,filler,1,
5901,Experiment Group,protected,0,0,spillover_1,1,440,1009,13,filler,2,
5901,Experiment Group,the,0,0,spillover_2,1,367,1009,13,filler,3,
5901,Experiment Group,guarded,0,0,0,1,337,1009,13,filler,4,
5901,Experiment Group,fortress,0,0,0,1,544,1009,13,filler,5,
5901,Experiment Group,Formed,0,0,0,1,551,61,14,critical,0,
5901,Experiment Group,from,0,0,0,1,481,61,14,critical,1,
5901,Experiment Group,slippery,0,0,0,1,1112,61,14,critical,2,
5901,Experiment Group,red,0,0,0,1,648,61,14,critical,3,
5901,Experiment Group,"clay,",0,0,0,1,519,61,14,critical,4,
5901,Experiment Group,the,0,0,0,1,408,61,14,critical,5,
5901,Experiment Group,artist,0,0,critical,1,400,61,14,critical,6,
5901,Experiment Group,will,0,0,spillover_1,1,264,61,14,critical,7,
5901,Experiment Group,admire,0,0,spillover_2,1,256,61,14,critical,8,
5901,Experiment Group,the,0,0,0,1,289,61,14,critical,9,
5901,Experiment Group,handmade,0,0,0,1,343,61,14,critical,10,
5901,Experiment Group,flowerpot,0,0,0,1,528,61,14,critical,11,
5901,Experiment Group,The,0,0,0,1,400,1022,15,filler,0,
5901,Experiment Group,dying,0,0,critical,1,296,1022,15,filler,1,
5901,Experiment Group,the,0,0,spillover_1,1,385,1022,15,filler,2,
5901,Experiment Group,cable,0,0,spillover_2,1,391,1022,15,filler,3,
5901,Experiment Group,computer,0,0,0,1,472,1022,15,filler,4,
5901,Experiment Group,charges,0,0,0,1,521,1022,15,filler,5,
5901,Experiment Group,The,0,0,0,1,400,1021,16,filler,0,
5901,Experiment Group,broken,0,0,critical,1,431,1021,16,filler,1,
5901,Experiment Group,fixes,0,0,spillover_1,1,376,1021,16,filler,2,
5901,Experiment Group,truck,0,0,spillover_2,1,416,1021,16,filler,3,
5901,Experiment Group,engineer,0,0,0,1,416,1021,16,filler,4,
5901,Experiment Group,the,0,0,0,1,496,1021,16,filler,5,
5901,Experiment Group,The,0,0,0,1,352,1018,17,filler,0,
5901,Experiment Group,dangerous,0,0,critical,1,352,1018,17,filler,1,
5901,Experiment Group,mixes,0,0,spillover_1,1,375,1018,17,filler,2,
5901,Experiment Group,chemicals,0,0,spillover_2,1,385,1018,17,filler,3,
5901,Experiment Group,scientist,0,0,0,1,560,1018,17,filler,4,
5901,Experiment Group,the,0,0,0,1,488,1018,17,filler,5,
5901,Experiment Group,The,0,0,0,1,433,1019,18,filler,0,
5901,Experiment Group,difficult,0,0,critical,1,352,1019,18,filler,1,
5901,Experiment Group,grades,0,0,spillover_1,1,367,1019,18,filler,2,
5901,Experiment Group,exam,0,0,spillover_2,1,305,1019,18,filler,3,
5901,Experiment Group,assistant,0,0,0,1,383,1019,18,filler,4,
5901,Experiment Group,the,0,0,0,1,409,1019,18,filler,5,
5901,Experiment Group,teaching,0,0,0,1,431,1019,18,filler,6,
5901,Experiment Group,The,0,0,0,0,519,1002,19,filler,0,
5901,Experiment Group,professor,0,0,critical,0,441,1002,19,filler,1,
5901,Experiment Group,played,0,0,spillover_1,0,383,1002,19,filler,2,
5901,Experiment Group,the,0,0,spillover_2,0,376,1002,19,filler,3,
5901,Experiment Group,lovely,0,0,0,0,304,1002,19,filler,4,
5901,Experiment Group,violin,0,0,0,0,568,1002,19,filler,5,
5901,Experiment Group,The,0,0,0,1,583,1003,20,filler,0,
5901,Experiment Group,woman,0,0,critical,1,1360,1003,20,filler,1,
5901,Experiment Group,washed,0,0,spillover_1,1,1456,1003,20,filler,2,
5901,Experiment Group,the,0,0,spillover_2,1,536,1003,20,filler,3,
5901,Experiment Group,dirty,0,0,0,1,721,1003,20,filler,4,
5901,Experiment Group,dishes,0,0,0,1,511,1003,20,filler,5,
5901,Experiment Group,The,0,0,0,1,448,1004,21,filler,0,
5901,Experiment Group,monkey,0,0,critical,1,440,1004,21,filler,1,
5901,Experiment Group,ate,0,0,spillover_1,1,425,1004,21,filler,2,
5901,Experiment Group,the,0,0,spillover_2,1,376,1004,21,filler,3,
5901,Experiment Group,ripe,0,0,0,1,551,1004,21,filler,4,
5901,Experiment Group,banana,0,0,0,1,617,1004,21,filler,5,
5901,Experiment Group,The,0,0,0,1,913,1023,22,filler,0,
5901,Experiment Group,acclaimed,0,0,critical,1,415,1023,22,filler,1,
5901,Experiment Group,honors,0,0,spillover_1,1,448,1023,22,filler,2,
5901,Experiment Group,artists,0,0,spillover_2,1,577,1023,22,filler,3,
5901,Experiment Group,gala,0,0,0,1,480,1023,22,filler,4,
5901,Experiment Group,the,0,0,0,1,471,1023,22,filler,5,
5901,Experiment Group,Housing,0,0,0,1,448,94,23,critical,0,
5901,Experiment Group,only,0,0,0,1,471,94,23,critical,1,
5901,Experiment Group,international,0,0,0,1,441,94,23,critical,2,
5901,Experiment Group,students,0,0,0,1,495,94,23,critical,3,
5901,Experiment Group,that,0,0,0,1,488,94,23,critical,4,
5901,Experiment Group,the,0,0,0,1,408,94,23,critical,5,
5901,Experiment Group,school,0,0,0,1,376,94,23,critical,6,
5901,Experiment Group,"accepted,",0,0,0,1,640,94,23,critical,7,
5901,Experiment Group,the,0,0,0,1,304,94,23,critical,8,
5901,Experiment Group,new,0,0,0,1,385,94,23,critical,9,
5901,Experiment Group,dormitory,0,0,critical,1,287,94,23,critical,10,
5901,Experiment Group,will,0,0,spillover_1,1,513,94,23,critical,11,
5901,Experiment Group,be,0,0,spillover_2,1,271,94,23,critical,12,
5901,Experiment Group,occupied,0,0,0,1,248,94,23,critical,13,
5901,Experiment Group,by,0,0,0,1,400,94,23,critical,14,
5901,Experiment Group,the,0,0,0,1,312,94,23,critical,15,
5901,Experiment Group,girls,0,0,0,1,256,94,23,critical,16,
5901,Experiment Group,for,0,0,0,1,448,94,23,critical,17,
5901,Experiment Group,now,0,0,0,1,521,94,23,critical,18,
5901,Experiment Group,Featuring,0,0,0,1,440,122,24,critical,0,
5901,Experiment Group,the,0,0,0,1,448,122,24,critical,1,
5901,Experiment Group,brick,0,0,0,1,368,122,24,critical,2,
5901,Experiment Group,oven,0,0,0,1,400,122,24,critical,3,
5901,Experiment Group,that,0,0,0,1,360,122,24,critical,4,
5901,Experiment Group,he,0,0,0,1,344,122,24,critical,5,
5901,Experiment Group,installed,0,0,0,1,336,122,24,critical,6,
5901,Experiment Group,last,0,0,0,1,480,122,24,critical,7,
5901,Experiment Group,"week,",0,0,0,1,304,122,24,critical,8,
5901,Experiment Group,the,0,0,0,1,536,122,24,critical,9,
5901,Experiment Group,chef,0,0,critical,1,345,122,24,critical,10,
5901,Experiment Group,will,0,0,spillover_1,1,335,122,24,critical,11,
5901,Experiment Group,monitor,0,0,spillover_2,1,352,122,24,critical,12,
5901,Experiment Group,the,0,0,0,1,529,122,24,critical,13,
5901,Experiment Group,kitchen,0,0,0,1,464,122,24,critical,14,
5901,Experiment Group,The,0,0,0,1,353,1016,25,filler,0,
5901,Experiment Group,sore,0,0,critical,1,303,1016,25,filler,1,
5901,Experiment Group,the,0,0,spillover_1,1,320,1016,25,filler,2,
5901,Experiment Group,athlete,0,0,spillover_2,1,393,1016,25,filler,3,
5901,Experiment Group,massages,0,0,0,1,344,1016,25,filler,4,
5901,Experiment Group,muscles,0,0,0,1,527,1016,25,filler,5,
5901,Experiment Group,The,0,0,0,1,704,1007,26,filler,0,
5901,Experiment Group,librarian,0,0,critical,1,408,1007,26,filler,1,
5901,Experiment Group,shelved,0,0,spillover_1,1,488,1007,26,filler,2,
5901,Experiment Group,the,0,0,spillover_2,1,417,1007,26,filler,3,
5901,Experiment Group,heavy,0,0,0,1,415,1007,26,filler,4,
5901,Experiment Group,book,0,0,0,1,456,1007,26,filler,5,
5901,Experiment Group,Running,0,0,0,1,256,53,27,critical,0,
5901,Experiment Group,on,0,0,0,1,256,53,27,critical,1,
5901,Experiment Group,clean,0,0,0,1,264,53,27,critical,2,
5901,Experiment Group,"energy,",0,0,0,1,248,53,27,critical,3,
5901,Experiment Group,the,0,0,0,1,248,53,27,critical,4,
5901,Experiment Group,car,0,0,critical,1,504,53,27,critical,5,
5901,Experiment Group,will,0,0,spillover_1,1,312,53,27,critical,6,
5901,Experiment Group,be,0,0,spillover_2,1,360,53,27,critical,7,
5901,Experiment Group,loved,0,0,0,1,288,53,27,critical,8,
5901,Experiment Group,deeply,0,0,0,1,297,53,27,critical,9,
5901,Experiment Group,by,0,0,0,1,295,53,27,critical,10,
5901,Experiment Group,the,0,0,0,1,336,53,27,critical,11,
5901,Experiment Group,environmentalist,0,0,0,1,592,53,27,critical,12,
5901,Experiment Group,The,0,0,0,1,615,1012,28,filler,0,
5901,Experiment Group,basket,0,0,critical,1,496,1012,28,filler,1,
5901,Experiment Group,held,0,0,spillover_1,1,553,1012,28,filler,2,
5901,Experiment Group,the,0,0,spillover_2,1,479,1012,28,filler,3,
5901,Experiment Group,expensive,0,0,0,1,384,1012,28,filler,4,
5901,Experiment Group,cheeses,0,0,0,1,513,1012,28,filler,5,
5901,Experiment Group,Comprising,0,0,0,1,415,101,29,critical,0,
5901,Experiment Group,six,0,0,0,1,545,101,29,critical,1,
5901,Experiment Group,difficult,0,0,0,1,575,101,29,critical,2,
5901,Experiment Group,"classes,",0,0,0,1,825,101,29,critical,3,
5901,Experiment Group,the,0,0,0,1,439,101,29,critical,4,
5901,Experiment Group,teacher,0,0,critical,1,345,101,29,critical,5,
5901,Experiment Group,will,0,0,spillover_1,1,335,101,29,critical,6,
5901,Experiment Group,manage,0,0,spillover_2,1,296,101,29,critical,7,
5901,Experiment Group,her,0,0,0,1,384,101,29,critical,8,
5901,Experiment Group,busy,0,0,0,1,328,101,29,critical,9,
5901,Experiment Group,schedule,0,0,0,1,504,101,29,critical,10,
5901,Experiment Group,Totaling,0,0,0,1,408,82,30,critical,0,
5901,Experiment Group,eight,0,0,0,1,433,82,30,critical,1,
5901,Experiment Group,athletes,0,0,0,1,888,82,30,critical,2,
5901,Experiment Group,that,0,0,0,1,479,82,30,critical,3,
5901,Experiment Group,he,0,0,0,1,328,82,30,critical,4,
5901,Experiment Group,"recruited,",0,0,0,1,448,82,30,critical,5,
5901,Experiment Group,the,0,0,0,1,400,82,30,critical,6,
5901,Experiment Group,coach,0,0,critical,1,256,82,30,critical,7,
5901,Experiment Group,will,0,0,spillover_1,1,272,82,30,critical,8,
5901,Experiment Group,manage,0,0,spillover_2,1,240,82,30,critical,9,
5901,Experiment Group,the,0,0,0,1,337,82,30,critical,10,
5901,Experiment Group,dedicated,0,0,0,1,344,82,30,critical,11,
5901,Experiment Group,team,0,0,0,1,839,82,30,critical,12,
5901,Experiment Group,Composed,0,0,0,1,560,31,31,critical,0,
5901,Experiment Group,of,0,0,0,1,591,31,31,critical,1,
5901,Experiment Group,ice,0,0,0,1,408,31,31,critical,2,
5901,Experiment Group,cream,0,0,0,1,392,31,31,critical,3,
5901,Experiment Group,and,0,0,0,1,440,31,31,critical,4,
5901,Experiment Group,"meringue,",0,0,0,1,353,31,31,critical,5,
5901,Experiment Group,the,0,0,0,1,527,31,31,critical,6,
5901,Experiment Group,baker,0,0,critical,1,361,31,31,critical,7,
5901,Experiment Group,will,0,0,spillover_1,1,335,31,31,critical,8,
5901,Experiment Group,present,0,0,spillover_2,1,304,31,31,critical,9,
5901,Experiment Group,the,0,0,0,1,376,31,31,critical,10,
5901,Experiment Group,baked,0,0,0,1,344,31,31,critical,11,
5901,Experiment Group,Alaska,0,0,0,1,496,31,31,critical,12,
5901,Experiment Group,The,0,0,0,1,400,1017,32,filler,0,
5901,Experiment Group,steady,0,0,critical,1,423,1017,32,filler,1,
5901,Experiment Group,the,0,0,spillover_1,1,376,1017,32,filler,2,
5901,Experiment Group,sails,0,0,spillover_2,1,336,1017,32,filler,3,
5901,Experiment Group,captain,0,0,0,1,368,1017,32,filler,4,
5901,Experiment Group,ship,0,0,0,1,568,1017,32,filler,5,
5901,Experiment Group,Consisting,0,0,0,1,537,14,33,critical,0,
5901,Experiment Group,of,0,0,0,1,535,14,33,critical,1,
5901,Experiment Group,ten,0,0,0,1,392,14,33,critical,2,
5901,Experiment Group,passages,0,0,0,1,416,14,33,critical,3,
5901,Experiment Group,that,0,0,0,1,464,14,33,critical,4,
5901,Experiment Group,she,0,0,0,1,400,14,33,critical,5,
5901,Experiment Group,"wrote,",0,0,0,1,832,14,33,critical,6,
5901,Experiment Group,a,0,0,0,1,464,14,33,critical,7,
5901,Experiment Group,new,0,0,0,1,312,14,33,critical,8,
5901,Experiment Group,book,0,0,critical,1,289,14,33,critical,9,
5901,Experiment Group,will,0,0,spillover_1,1,279,14,33,critical,10,
5901,Experiment Group,be,0,0,spillover_2,1,304,14,33,critical,11,
5901,Experiment Group,published,0,0,0,1,328,14,33,critical,12,
5901,Experiment Group,by,0,0,0,1,368,14,33,critical,13,
5901,Experiment Group,the,0,0,0,1,296,14,33,critical,14,
5901,Experiment Group,author,0,0,0,1,800,14,33,critical,15,
5901,Experiment Group,Derived,0,0,0,1,648,44,34,critical,0,
5901,Experiment Group,from,0,0,0,1,504,44,34,critical,1,
5901,Experiment Group,ancient,0,0,0,1,367,44,34,critical,2,
5901,Experiment Group,Greek,0,0,0,1,464,44,34,critical,3,
5901,Experiment Group,texts,0,0,0,1,440,44,34,critical,4,
5901,Experiment Group,that,0,0,0,1,553,44,34,critical,5,
5901,Experiment Group,she,0,0,0,1,520,44,34,critical,6,
5901,Experiment Group,unearthed,0,0,0,1,592,44,34,critical,7,
5901,Experiment Group,at,0,0,0,1,471,44,34,critical,8,
5901,Experiment Group,the,0,0,0,1,488,44,34,critical,9,
5901,Experiment Group,"temple,",0,0,0,1,344,44,34,critical,10,
5901,Experiment Group,the,0,0,0,1,449,44,34,critical,11,
5901,Experiment Group,tome,0,0,critical,1,271,44,34,critical,12,
5901,Experiment Group,will,0,0,spillover_1,1,320,44,34,critical,13,
5901,Experiment Group,be,0,0,spillover_2,1,360,44,34,critical,14,
5901,Experiment Group,studied,0,0,0,1,280,44,34,critical,15,
5901,Experiment Group,carefully,0,0,0,1,328,44,34,critical,16,
5901,Experiment Group,by,0,0,0,1,424,44,34,critical,17,
5901,Experiment Group,the,0,0,0,1,312,44,34,critical,18,
5901,Experiment Group,student,0,0,0,1,600,44,34,critical,19,
5901,Experiment Group,The,0,0,0,1,383,1020,35,filler,0,
5901,Experiment Group,valuable,0,0,critical,1,384,1020,35,filler,1,
5901,Experiment Group,the,0,0,spillover_1,1,400,1020,35,filler,2,
5901,Experiment Group,shelf,0,0,spillover_2,1,472,1020,35,filler,3,
5901,Experiment Group,jewelry,0,0,0,1,393,1020,35,filler,4,
5901,Experiment Group,stores,0,0,0,1,535,1020,35,filler,5,
5920,Experiment Group,The,0,0,0,1,313,1022,0,filler,0,
5920,Experiment Group,dying,0,0,critical,1,422,1022,0,filler,1,
5920,Experiment Group,the,0,0,spillover_1,1,639,1022,0,filler,2,
5920,Experiment Group,cable,0,0,spillover_2,1,348,1022,0,filler,3,
5920,Experiment Group,computer,0,0,0,1,395,1022,0,filler,4,
5920,Experiment Group,charges,0,0,0,1,1626,1022,0,filler,5,
5920,Experiment Group,The,0,0,0,1,336,1005,1,filler,0,
5920,Experiment Group,wrecking,0,0,critical,1,405,1005,1,filler,1,
5920,Experiment Group,ball,0,0,spillover_1,1,389,1005,1,filler,2,
5920,Experiment Group,demolished,0,0,spillover_2,1,411,1005,1,filler,3,
5920,Experiment Group,the,0,0,0,1,327,1005,1,filler,4,
5920,Experiment Group,decrepit,0,0,0,1,321,1005,1,filler,5,
5920,Experiment Group,building,0,0,0,1,477,1005,1,filler,6,
5920,Experiment Group,Housing,0,0,0,1,487,92,2,critical,0,
5920,Experiment Group,only,0,0,0,1,480,92,2,critical,1,
5920,Experiment Group,international,0,0,0,1,451,92,2,critical,2,
5920,Experiment Group,students,0,0,0,1,351,92,2,critical,3,
5920,Experiment Group,that,0,0,0,1,556,92,2,critical,4,
5920,Experiment Group,the,0,0,0,1,330,92,2,critical,5,
5920,Experiment Group,school,0,0,0,1,600,92,2,critical,6,
5920,Experiment Group,"accepted,",0,0,0,1,287,92,2,critical,7,
5920,Experiment Group,the,0,0,0,1,1075,92,2,critical,8,
5920,Experiment Group,girls,0,0,critical,1,314,92,2,critical,9,
5920,Experiment Group,will,0,0,spillover_1,1,332,92,2,critical,10,
5920,Experiment Group,occupy,0,0,spillover_2,1,371,92,2,critical,11,
5920,Experiment Group,the,0,0,0,1,254,92,2,critical,12,
